#     FILENAME=Skynet_60335_crab_108895_58585.A.raw.txt
#     BASENAME=Skynet_60335_crab_108895_58585
#      CONTROL=SKYNET
#     PROJCODE=Skynet_60335_crab_108895
#     DATAROOT=/raid/scratch/cyborg/SkynetData
#      DATADIR=/raid/scratch/cyborg
#     DATADIR2=/raid/scratch/cyborg/SkynetData/Skynet_60335_crab_108895/Cyborg
#     SCANNAME=2019_06_26_10
#     SRC_NAME=crab
#     OBSERVER=tomanm27_55532
#     DATE_OBS=2024-01-27T00:06:35.050
#        OBSID=108895
#      SCANNUM=58585
#          MJD=60336.0045723
#          UTC=00395
#     SCANTYPE=ralongmap
#     DATAMODE=LOWRES
#     RECEIVER=Rx1_2
#      OBSFREQ=1395.0000
#    LO1Tuning=7000.0000
#     RFFILTER=1355_1435
#        OBSBW=-500.0000
#     EFFBANDW=80.0000
#        NCHAN=1024
#    STARTCHAN=747
#     STOPCHAN=911
#         TINT=0.5033
#         TBIN=0.00419430
#       ACCLEN=2048 
#     DURATION=574.72
#     EXPOSURE=502.31
#        FOCUS=37.005
#       RA,DEC=05:25:15.46, 19:45:41.29
#      RA(deg)=83.62942
#     DEC(deg)=22.01537
#   WIDTH(deg)=4.9201x4.6274
#    AZIM(deg)=107.8052
#    ELEV(deg)=55.5962
#     COORDREF=RA_DEC_
#         HREF=83.6283
#         VREF=22.0147
#      RADESYS=FK5
#       OFFSYS=AZEL
#      EQUINOX=2000.00
#     IFATTENS=9.00, 10.00
#   BALANCELEV=1.200 
#   POWER_XLYR=[0.82, 0.68] 
#       VELDEF=RADI-OBS 
#     VELOCITY=0.000 
#         NPOL=2 
#      POLMODE=Linear 
#      POLTYPE=XXYY 
#      WARNING=None 
#     NOISECAL=HI 
#       PRECAL=3 
#      POSTCAL=3 
#     CRYOTEMP=290 
#      BOXTEMP=23 
#         TSYS=YY1:148.51, XX1:127.22
#         TCAL=YY1:9.92, XX1:9.15
# Raw Continuum 
#                
#UTC_Time(s)    Ra(hr)  Dec(deg)   Az(deg)   El(deg)        YY1        XX1 Cal   Sweeps 
 395.050000   5.42127   19.7615  112.0750   55.0364   268.6771   141.8887  -1    0  0 
 395.150663   5.42130   19.7615  112.0750   55.0364   285.3512   150.8927   1    0  0 
 395.251326   5.42139   19.7615  112.0750   55.0364   287.7943   152.0227   1    0  0 
 395.351990   5.42142   19.7615  112.0750   55.0364   287.6881   151.8172   1    0  0 
 395.452653   5.42145   19.7615  112.0750   55.0364   287.4385   152.1100   1    0  0 
 395.553316   5.42143   19.7615  112.0750   55.0364   287.4768   152.1683   1    0  0 
 395.653979   5.42146   19.7615  112.0750   55.0364   287.4788   152.0502   1    0  0 
 395.754642   5.42149   19.7615  112.0750   55.0364   287.2684   152.0349   1    0  0 
 395.855305   5.42152   19.7615  112.0750   55.0364   287.3886   152.0616   1    0  0 
 395.955969   5.42153   19.7615  112.0750   55.0364   286.9853   151.9870   1    0  0 
 396.056632   5.42155   19.7615  112.0750   55.0364   287.4517   152.0056   1    0  0 
 396.157295   5.42158   19.7615  112.0750   55.0364   287.0570   152.1239   1    0  0 
 396.257958   5.42161   19.7615  112.0750   55.0364   287.0831   152.0658   1    0  0 
 396.358621   5.42170   19.7615  112.0750   55.0364   287.1654   152.1039   1    0  0 
 396.459285   5.42169   19.7615  112.0750   55.0364   287.2572   152.1592   1    0  0 
 396.559948   5.42172   19.7615  112.0750   55.0364   287.2257   152.0517   1    0  0 
 396.660611   5.42174   19.7615  112.0750   55.0364   287.1582   151.8304   1    0  0 
 396.761275   5.42177   19.7615  112.0750   55.0364   287.3051   151.7546   1    0  0 
 396.861937   5.42172   19.7621  112.0750   55.0370   287.3032   151.9153   1    0  0 
 396.962601   5.42174   19.7622  112.0750   55.0371   287.4231   151.8985   1    0  0 
 397.063264   5.42176   19.7622  112.0750   55.0371   287.3444   151.9844   1    0  0 
 397.163927   5.42192   19.7609  112.0750   55.0358   287.6263   152.0018   1    0  0 
 397.264590   5.42189   19.7615  112.0750   55.0364   287.5053   152.1842   1    0  0 
 397.365254   5.42191   19.7615  112.0750   55.0364   287.3074   151.9383   1    0  0 
 397.465916   5.42194   19.7615  112.0750   55.0364   286.8102   152.0043   1    0  0 
 397.566580   5.42199   19.7615  112.0750   55.0364   286.8877   152.1405   1    0  0 
 397.667243   5.42201   19.7615  112.0750   55.0364   287.2757   151.9611   1    0  0 
 397.767906   5.42204   19.7615  112.0750   55.0364   287.1157   151.9244   1    0  0 
 397.868570   5.42207   19.7615  112.0750   55.0364   287.5950   151.8694   1    0  0 
 397.969233   5.42215   19.7615  112.0750   55.0364   287.4765   151.9849   1    0  0 
 398.069896   5.42214   19.7615  112.0750   55.0364   287.6101   151.9638   1    0  0 
 398.170559   5.42216   19.7615  112.0750   55.0364   268.7214   141.9643   1    0  0 
 398.271222   5.42219   19.7615  112.0750   55.0364   268.3488   141.8986  -1    0  0 
 398.371886   5.42216   19.7615  112.0750   55.0364   268.4234   141.7659   0    0  0 
 398.472549   5.42224   19.7618  112.0750   55.0367   268.6968   141.8116   0    0  0 
 398.573212   5.42227   19.7618  112.0750   55.0367   268.6620   141.7473   0    0  0 
 398.673875   5.42230   19.7618  112.0750   55.0367   268.6324   141.8216   0    0  0 
 398.774538   5.42233   19.7612  112.0750   55.0361   268.9562   141.6800   0    0  0 
 398.875201   5.42235   19.7611  112.0750   55.0360   268.5805   141.6931   0    0  0 
 398.975865   5.42238   19.7611  112.0750   55.0360   268.6731   141.7400   0    0  0 
 399.076528   5.42241   19.7610  112.0750   55.0359   268.5141   141.7379   0    0  0 
 399.177191   5.42248   19.7615  112.0750   55.0364   268.6573   141.7675   0    0  0 
 399.277854   5.42252   19.7615  112.0750   55.0364   269.1345   141.7359   0    0  0 
 399.378517   5.42255   19.7615  112.0750   55.0364   268.6974   141.7459   0    0  0 
 399.479181   5.42184   19.7615  112.0855   55.0427   268.8365   141.7839   0    0  0 
 399.579844   5.39914   19.6759  112.5601   55.2370   268.8652   141.8543   0    0  0 
 399.680507   5.39740   19.6694  112.5967   55.2521   268.8121   141.8202   0    0  0 
 399.781171   5.39566   19.6629  112.6333   55.2673   268.9657   141.8681   0    0  0 
 399.881833   5.40506   19.7631  112.3512   55.2281   268.7740   141.7235   0    0  0 
 399.982497   5.41468   19.7805  112.1754   55.1358   268.7997   141.8169   0    0  0 
 400.083160   5.41457   19.7831  112.1742   55.1389   268.5339   141.8548   0    0  0 
 400.183823   5.41446   19.7856  112.1730   55.1421   268.5634   141.8540   0    0  0 
 400.284486   5.41180   19.7583  112.2522   55.1524   268.4454   141.7787   0    0  0 
 400.385150   5.41393   19.8188  112.1386   55.1698   268.5814   141.8309   0    0  0 
 400.485812   5.41382   19.8239  112.1340   55.1746   268.5039   141.9867   0    0  0 
 400.586476   5.41371   19.8291  112.1293   55.1794   268.6930   141.9204   0    0  0 
 400.687139   5.41406   19.7486  112.2312   55.1243   269.0290   141.7975   0    0  0 
 400.787802   5.41414   19.7688  112.2032   55.1357   268.8927   141.7842   0    0  0 
 400.888466   5.41407   19.7696  112.2036   55.1372   268.9160   141.9823   0    0  0 
 400.989129   5.41401   19.7703  112.2040   55.1386   269.0066   141.8562   0    0  0 
 401.089792   5.41490   19.7709  112.1902   55.1302   268.7117   141.7707   0    0  0 
 401.593108   5.41484   19.7644  112.2030   55.1288   268.9172   141.7080   0    0  0 
 402.096424   5.41549   19.7564  112.2046   55.1174   268.8060   141.8447   0    0  1 
 402.599740   5.41586   19.7609  112.1950   55.1181   268.6127   141.7948   0    0  1 
 403.103056   5.41601   19.7582  112.1986   55.1161   268.5107   141.7133   0    0  1 
 403.606372   5.41630   19.7619  112.1910   55.1167   268.4923   141.5972   0    0  1 
 404.109688   5.45997   19.7110  111.5733   54.6105   268.4646   141.6191   0    0  1 
 404.613004   5.48248   19.9045  110.9648   54.4898   268.1229   141.6537   0    0  1 
 405.116320   5.47483   19.7349  111.3183   54.4656   268.0910   141.7110   0    0  1 
 405.619636   5.48676   19.7594  111.1038   54.3524   268.2178   141.5303   0    0  1 
 406.122952   5.49680   19.7622  110.9487   54.2457   268.4413   141.6416   0    0  1 
 406.626268   5.50845   19.7515  110.7873   54.1126   268.4190   141.6464   0    0  1 
 407.129584   5.51900   19.7608  110.6172   54.0039   268.2635   141.7633   0    0  1 
 407.632900   5.53016   19.7618  110.4493   53.8836   268.5704   141.6922   0    0  1 
 408.136216   5.53985   19.7579  110.3109   53.7761   268.4647   141.7659   0    0  1 
 408.639532   5.55207   19.7650  110.1204   53.6471   268.9685   141.9723   0    0  1 
 409.142848   5.56124   19.7637  109.9881   53.5467   269.2486   142.0297   0    0  1 
 409.646164   5.57231   19.7616  109.8278   53.4249   269.5098   142.2824   0    0  1 
 410.149480   5.58238   19.7597  109.6837   53.3138   269.5720   142.3068   0    0  1 
 410.652796   5.59435   19.7615  109.5065   53.1838   269.3991   142.3376   0    0  1 
 411.156112   5.60402   19.7607  109.3691   53.0780   269.2461   142.0614   0    0  1 
 411.659428   5.61528   19.7609  109.2059   52.9548   269.0030   141.8695   0    0  1 
 412.162744   5.62550   19.7598  109.0610   52.8424   268.8979   141.7676   0    0  1 
 412.666060   5.63774   19.7637  108.8802   52.7099   268.5974   141.7788   0    0  1 
 413.169376   5.64729   19.7633  108.7455   52.6051   268.3460   141.6258   0    0  1 
 413.672692   5.65734   19.7645  108.6026   52.4960   268.1695   141.5699   0    0  1 
 414.176008   5.66867   19.7599  108.4480   52.3684   268.0815   141.5637   0    0  1 
 414.679324   5.67913   19.7608  108.2995   52.2538   267.8606   141.6958   0    0  1 
 415.182640   5.68996   19.7619  108.1472   52.1349   267.9435   141.8611   0    0  1 
 415.685956   5.70010   19.7608  108.0073   52.0227   267.7604   141.8154   0    0  1 
 416.189272   5.71126   19.7611  107.8520   51.9002   267.6687   141.7290   0    0  1 
 416.692588   5.72340   19.7622  107.6822   51.7661   267.7207   141.8004   0    0  1 
 417.195904   5.73340   19.7604  107.5474   51.6549   267.6512   141.9045   0    0  1 
 417.699220   5.74301   19.7638  107.4114   51.5508   267.5536   141.8246   0    0  1 
 418.202536   5.75419   19.7622  107.2610   51.4260   267.8923   141.7712   0    0  0 
 418.705852   5.76589   19.7630  107.1001   51.2968   268.1168   141.8260   0    0  0 
 419.209168   5.71757   19.9527  107.5287   51.9559   268.0305   141.8059   0    0  0 
 419.712484   5.72913   19.9569  107.3653   51.8303   268.0229   141.8606   0    0  0 
 420.215800   5.73286   19.9409  107.3358   51.7803   268.0383   141.8147   0    1  1 
 420.719116   5.73305   19.9306  107.3476   51.7729   267.9490   141.9631   0    1  1 
 421.222432   5.73423   19.9190  107.3485   51.7547   267.9641   141.9994   0    1  1 
 421.725748   5.73432   19.9244  107.3422   51.7587   267.9085   141.9738   0    1  1 
 422.229064   5.68323   19.8797  108.1152   52.3052   267.7333   141.9969   0    1  1 
 422.732380   5.67410   19.8116  108.3346   52.3666   267.8734   141.9572   0    1  1 
 423.235696   5.67414   19.9039  108.2193   52.4238   268.0102   141.8948   0    1  1 
 423.739012   5.65929   19.9578  108.3622   52.6242   267.7707   141.8750   0    1  1 
 424.242328   5.65277   19.9229  108.5038   52.6773   268.1069   141.8088   0    1  1 
 424.745644   5.64087   19.9148  108.6866   52.8062   267.9060   141.7044   0    1  1 
 425.248960   5.63226   19.9123  108.8170   52.9019   268.0332   141.7613   0    1  1 
 425.752276   5.61953   19.9142  108.9997   53.0462   268.0259   141.6232   0    1  1 
 426.255592   5.61049   19.9092  109.1417   53.1449   268.1664   141.6775   0    1  1 
 426.758908   5.59821   19.9131  109.3169   53.2850   268.6675   141.7171   0    1  1 
 427.262224   5.58912   19.9125  109.4537   53.3869   268.7630   141.7883   0    1  1 
 427.765540   5.57687   19.9084  109.6412   53.5216   268.8646   141.8123   0    1  1 
 428.268856   5.56776   19.9106  109.7767   53.6253   268.8171   141.7033   0    1  1 
 428.772172   5.55545   19.9138  109.9563   53.7647   268.4901   141.5473   0    1  1 
 429.275488   5.54491   19.9106  110.1212   53.8805   268.1587   141.4492   0    1  1 
 429.778804   5.53618   19.9135  110.2507   53.9805   267.7401   141.3328   0    1  1 
 430.282120   5.52338   19.9095  110.4512   54.1202   267.7661   141.3482   0    1  1 
 430.785436   5.51440   19.9113  110.5874   54.2217   267.7613   141.3070   0    1  1 
 431.288752   5.50203   19.9104  110.7783   54.3584   267.4934   141.4731   0    1  1 
 431.792068   5.49267   19.9125  110.9213   54.4640   267.3738   141.3638   0    1  1 
 432.295384   5.48056   19.9123  111.1098   54.5982   267.5328   141.2575   0    1  1 
 432.798700   5.47155   19.9123  111.2504   54.6983   267.2813   141.3184   0    1  1 
 433.302016   5.45965   19.9117  111.4382   54.8299   267.2128   141.2241   0    1  1 
 433.805332   5.45014   19.9110  111.5894   54.9347   267.2591   141.1189   0    1  1 
 434.308648   5.43781   19.9122  111.7837   55.0717   267.3996   141.2945   0    1  1 
 434.811964   5.42853   19.9105  111.9342   55.1731   267.4937   141.3516   0    1  1 
 435.315280   5.41815   19.9101  112.0997   55.2874   267.3411   141.5147   0    1  1 
 435.818596   5.40724   19.9096  112.2770   55.4073   267.5354   141.6646   0    1  1 
 436.321912   5.39579   19.9133  112.4574   55.5353   267.7163   141.5148   0    1  0 
 436.825228   5.38483   19.9145  112.6329   55.6566   267.4142   141.5684   0    1  0 
 437.328544   5.42690   19.8264  112.0836   55.1452   267.7474   141.6942   0    1  0 
 437.831860   5.42060   20.1135  111.7974   55.3980   267.6679   141.8102   0    1  0 
 438.335176   5.41479   20.0730  111.9463   55.4365   267.8267   141.7395   0    2  1 
 438.838492   5.41535   20.0711  111.9429   55.4312   267.5342   141.6749   0    2  1 
 439.341808   5.41523   20.0699  111.9481   55.4330   267.6301   141.7784   0    2  1 
 439.845124   5.41511   20.0704  111.9510   55.4360   267.7021   141.5547   0    2  1 
 440.348440   5.45759   20.0039  111.3741   54.9323   267.7592   141.5667   0    2  1 
 440.851756   5.48325   20.2291  110.6701   54.7967   267.5710   141.6762   0    2  1 
 441.355072   5.47487   20.0390  111.0654   54.7678   267.5840   141.6374   0    2  1 
 441.858388   5.48673   20.0508  110.8689   54.6475   267.5804   141.6278   0    2  1 
 442.361704   5.49628   20.0663  110.7043   54.5536   267.5058   141.6144   0    2  1 
 442.865020   5.50858   20.0536  110.5348   54.4120   267.6206   141.5459   0    2  1 
 443.368336   5.51767   20.0564  110.3965   54.3151   267.8326   141.5719   0    2  1 
 443.871652   5.52856   20.0629  110.2250   54.2009   267.7127   141.7410   0    2  1 
 444.374968   5.53885   20.0647  110.0696   54.0898   267.8100   141.5437   0    2  1 
 444.878284   5.55129   20.0623  109.8878   53.9529   267.6807   141.5826   0    2  1 
 445.381600   5.56150   20.0622  109.7385   53.8412   267.8547   141.5855   0    2  1 
 445.884916   5.57106   20.0612  109.5999   53.7364   267.9889   141.4705   0    2  1 
 446.388232   5.58343   20.0608  109.4201   53.6008   268.1065   141.4710   0    2  1 
 446.891548   5.59262   20.0605  109.2869   53.5003   267.9571   141.5369   0    2  1 
 447.394864   5.60438   20.0616  109.1153   53.3721   267.7660   141.7053   0    2  1 
 447.898180   5.61363   20.0600  108.9838   53.2700   267.5634   141.5666   0    2  1 
 448.401496   5.62594   20.0638  108.8029   53.1373   267.4208   141.5504   0    2  1 
 448.904812   5.63522   20.0627  108.6714   53.0347   267.4543   141.5006   0    2  1 
 449.408128   5.64780   20.0642  108.4904   52.8970   267.4288   141.6159   0    2  1 
 449.911444   5.65646   20.0635  108.3697   52.8015   267.2810   141.4970   0    2  1 
 450.414760   5.66918   20.0609  108.1930   52.6600   267.2853   141.6678   0    2  1 
 450.918076   5.67798   20.0606  108.0699   52.5628   267.3752   141.7380   0    2  1 
 451.421392   5.69032   20.0588  107.8997   52.4252   267.2026   141.8646   0    2  1 
 451.924708   5.69879   20.0607  107.7803   52.3336   267.1984   141.8354   0    2  1 
 452.428024   5.71161   20.0621  107.6006   52.1926   266.9989   141.9401   0    2  1 
 452.931340   5.72065   20.0624  107.4747   52.0930   266.8651   141.8764   0    2  1 
 453.434656   5.73153   20.0635  107.3236   51.9733   267.0123   141.8907   0    2  1 
 453.937972   5.74397   20.0613  107.1563   51.8341   267.0388   141.8775   0    2  1 
 454.441288   5.75518   20.0622  107.0023   51.7098   267.0311   141.8326   0    2  0 
 454.944604   5.76370   20.0638  106.8840   51.6172   267.2433   141.8310   0    2  0 
 455.447920   5.72531   20.1923  107.2513   52.1275   266.9968   141.7768   0    2  0 
 455.951236   5.73124   20.2445  107.1033   52.0942   267.0734   141.8302   0    2  0 
 456.454552   5.73305   20.2303  107.0984   52.0667   266.9301   141.8216   0    3  1 
 456.957868   5.73316   20.2300  107.0998   52.0668   267.1226   141.8326   0    3  1 
 457.461184   5.73404   20.2177  107.1052   52.0511   266.9200   141.8925   0    3  1 
 457.964500   5.73437   20.2175  107.1029   52.0488   266.9238   141.8474   0    3  1 
 458.467816   5.68226   20.1664  107.8986   52.6039   267.0726   141.8588   0    3  1 
 458.971132   5.67971   20.1464  107.9630   52.6211   267.3417   141.7234   0    3  1 
 459.474448   5.67331   20.2106  107.9741   52.7334   267.3403   141.7180   0    3  1 
 459.977764   5.66250   20.2213  108.1155   52.8622   267.3390   141.7478   0    3  1 
 460.481080   5.65216   20.2216  108.2660   52.9794   267.2081   141.7110   0    3  1 
 460.984396   5.64188   20.2127  108.4257   53.0898   267.3524   141.5280   0    3  1 
 461.487712   5.63102   20.2144  108.5830   53.2138   267.4015   141.4980   0    3  1 
 461.991028   5.62001   20.2129  108.7464   53.3369   267.5872   141.5480   0    3  1 
 462.494344   5.60965   20.2134  108.8992   53.4539   267.5535   141.4498   0    3  1 
 462.997660   5.59971   20.2107  109.0494   53.5643   267.3872   141.5921   0    3  1 
 463.500976   5.58841   20.2133  109.2143   53.6928   267.4627   141.3336   0    3  1 
 464.004292   5.57754   20.2114  109.3790   53.8137   267.5572   141.2714   0    3  1 
 464.507608   5.56796   20.2104  109.5246   53.9209   267.5727   141.4276   0    3  1 
 465.010924   5.55777   20.2135  109.6733   54.0365   267.4335   141.4609   0    3  1 
 465.514240   5.54659   20.2117  109.8457   54.1610   267.3813   141.5487   0    3  1 
 466.017556   5.53642   20.2122  109.9993   54.2751   267.0574   141.4243   0    3  1 
 466.520872   5.52499   20.2126  110.1731   54.4028   267.1896   141.5260   0    3  1 
 467.024188   5.51484   20.2123  110.3294   54.5162   267.0499   141.4987   0    3  1 
 467.527504   5.50375   20.2101  110.5032   54.6382   266.8901   141.5070   0    3  1 
 468.030820   5.49371   20.2096  110.6595   54.7502   266.7685   141.6087   0    3  1 
 468.534136   5.48243   20.2100  110.8347   54.8756   266.8731   141.6213   0    3  1 
 469.037452   5.47239   20.2120  110.9885   54.9884   266.7534   141.6772   0    3  1 
 469.540768   5.46110   20.2123  111.1658   55.1137   266.7011   141.6532   0    3  1 
 470.044084   5.45093   20.2131  111.3248   55.2279   266.7906   141.4796   0    3  1 
 470.547400   5.43957   20.2111  111.5080   55.3520   266.8882   141.4517   0    3  1 
 471.050716   5.42953   20.2121  111.6671   55.4638   266.8734   141.4101   0    3  1 
 471.554032   5.41665   20.2124  111.8718   55.6059   266.8187   141.3653   0    3  1 
 472.057348   5.40842   20.2118  112.0056   55.6966   267.0304   141.4990   0    3  1 
 472.560664   5.39674   20.2133  112.1925   55.8261   267.0786   141.3224   0    3  0 
 473.063980   5.38716   20.2139  112.3487   55.9326   266.9973   141.5251   0    3  0 
 473.567296   5.42163   20.2619  111.7338   55.5896   266.8793   141.4188   0    3  0 
 474.070612   5.42761   20.6600  111.0930   55.7778   267.0388   141.5890   0    3  0 
 474.573928   5.41662   20.3578  111.6864   55.7072   267.2853   141.6658   0    4  1 
 475.077244   5.41593   20.3600  111.6973   55.7173   267.0320   141.4313   0    4  1 
 475.580560   5.41602   20.3599  111.6976   55.7183   267.1305   141.4610   0    4  1 
 476.083876   5.41570   20.3663  111.6961   55.7273   267.3113   141.5571   0    4  1 
 476.587192   5.46213   20.3187  111.0328   55.1915   267.3689   141.5485   0    4  1 
 477.090508   5.47590   20.5240  110.5394   55.1717   267.4578   141.4504   0    4  1 
 477.593824   5.47417   20.3603  110.7963   55.0884   267.0644   141.4168   0    4  1 
 478.097140   5.48567   20.3469  110.6397   54.9551   266.9312   141.6077   0    4  1 
 478.600456   5.49613   20.3533  110.4728   54.8457   267.0118   141.4036   0    4  1 
 479.103772   5.50818   20.3693  110.2685   54.7249   267.0195   141.4878   0    4  1 
 479.607088   5.51754   20.3625  110.1390   54.6188   266.9044   141.4446   0    4  1 
 480.110404   5.52972   20.3557  109.9655   54.4815   267.1188   141.5779   0    4  1 
 480.613720   5.53935   20.3567  109.8225   54.3775   267.1829   141.5809   0    4  1 
 481.117036   5.55093   20.3641  109.6394   54.2555   267.2183   141.3280   0    4  1 
 481.620352   5.56069   20.3604  109.5017   54.1467   267.5169   141.3013   0    4  1 
 482.123668   5.57328   20.3592  109.3191   54.0082   267.8228   141.3971   0    4  1 
 482.626984   5.58140   20.3626  109.1969   53.9216   267.8645   141.4004   0    4  1 
 483.130300   5.59435   20.3613  109.0097   53.7790   268.0894   141.3947   0    4  1 
 483.633616   5.60328   20.3631  108.8787   53.6821   268.0828   141.2121   0    4  1 
 484.136932   5.61590   20.3614  108.6984   53.5425   267.4560   141.1398   0    4  1 
 484.640248   5.62417   20.3623  108.5800   53.4523   267.4953   141.1480   0    4  1 
 485.143564   5.63733   20.3630  108.3902   53.3077   267.4682   141.3142   0    4  1 
 485.646880   5.64615   20.3624  108.2664   53.2104   267.3398   141.2814   0    4  1 
 486.150196   5.65745   20.3612  108.1081   53.0853   267.0790   141.3686   0    4  1 
 486.653512   5.66697   20.3598  107.9764   52.9795   267.0151   141.4370   0    4  1 
 487.156828   5.67894   20.3635  107.8024   52.8495   266.9601   141.6243   0    4  1 
 487.660144   5.68904   20.3633  107.6620   52.7382   267.0688   141.7356   0    4  1 
 488.163460   5.70140   20.3633  107.4896   52.6007   266.9815   141.8030   0    4  1 
 488.666776   5.70926   20.3632  107.3818   52.5143   266.9853   141.7555   0    4  1 
 489.170092   5.72172   20.3621  107.2106   52.3759   266.8222   141.8524   0    4  1 
 489.673408   5.73260   20.3634  107.0590   52.2557   266.9498   141.7185   0    4  1 
 490.176724   5.74291   20.3600  106.9230   52.1394   266.8870   141.6461   0    4  1 
 490.680040   5.75288   20.3623  106.7844   52.0305   267.0307   141.7301   0    4  0 
 491.183356   5.76434   20.3639  106.6263   51.9040   267.2649   141.7541   0    4  0 
 491.686672   5.73382   20.4118  106.9874   52.2779   267.1074   141.7405   0    4  0 
 492.189988   5.72892   20.5548  106.8701   52.4205   267.2099   141.8383   0    4  0 
 492.693304   5.73326   20.5314  106.8429   52.3590   267.0785   141.7233   0    5  1 
 493.196620   5.73312   20.5277  106.8513   52.3600   267.1317   141.7871   0    5  1 
 493.699936   5.73407   20.5157  106.8560   52.3435   266.9733   141.7267   0    5  1 
 494.203252   5.73438   20.5187  106.8496   52.3437   267.3063   141.7934   0    5  1 
 494.706568   5.69398   20.5372  107.3889   52.8101   267.0850   141.7136   0    5  1 
 495.209884   5.66689   20.3512  108.0165   53.0036   267.1830   141.6536   0    5  1 
 495.713200   5.67466   20.5243  107.6846   53.0218   267.1389   141.5656   0    5  1 
 496.216516   5.66557   20.5345  107.8029   53.1316   267.3652   141.4343   0    5  1 
 496.719832   5.65363   20.5209  107.9925   53.2579   267.1448   141.2857   0    5  1 
 497.223148   5.64220   20.5130  108.1689   53.3826   267.3339   141.3684   0    5  1 
 497.726464   5.63256   20.5160  108.3058   53.4932   267.6220   141.2774   0    5  1 
 498.229780   5.62305   20.5110  108.4519   53.5976   267.6520   141.1765   0    5  1 
 498.733096   5.61126   20.5148  108.6202   53.7331   267.6920   141.2645   0    5  1 
 499.236412   5.59963   20.5085  108.7998   53.8602   268.2480   141.3221   0    5  1 
 499.739728   5.59014   20.5139  108.9343   53.9706   268.3644   141.2441   0    5  1 
 500.243044   5.58040   20.5121  109.0829   54.0791   268.2612   141.2604   0    5  1 
 500.746360   5.56868   20.5115  109.2584   54.2105   268.1981   141.1688   0    5  1 
 501.249676   5.55730   20.5118  109.4291   54.3384   267.8628   141.2310   0    5  1 
 501.752992   5.54773   20.5144  109.5709   54.4475   267.6398   141.1315   0    5  1 
 502.256308   5.53757   20.5149  109.7249   54.5617   267.4531   141.2088   0    5  1 
 502.759624   5.52688   20.5122  109.8915   54.6797   267.3326   141.0614   0    5  1 
 503.262940   5.51315   20.5135  110.0998   54.8336   266.9715   140.9375   0    5  1 
 503.766256   5.50490   20.5135  110.2273   54.9259   266.9748   141.0499   0    5  1 
 504.269572   5.49492   20.5116  110.3847   55.0363   266.8739   140.9948   0    5  1 
 504.772888   5.48431   20.5120  110.5494   55.1548   267.0243   141.1226   0    5  1 
 505.276204   5.47037   20.5092  110.7690   55.3083   266.9072   141.1462   0    5  1 
 505.779520   5.46295   20.5130  110.8824   55.3932   266.8146   141.1241   0    5  1 
 506.282836   5.45134   20.5122  111.0659   55.5214   266.9630   141.0942   0    5  1 
 506.786152   5.44151   20.5137  111.2203   55.6319   267.0960   141.0257   0    5  1 
 507.289468   5.42913   20.5130  111.4169   55.7685   267.2377   141.0166   0    5  1 
 507.792784   5.42004   20.5132  111.5633   55.8698   267.4689   141.0168   0    5  1 
 508.296100   5.40841   20.5120  111.7522   55.9974   267.4483   141.1470   0    5  1 
 508.799416   5.39883   20.5135  111.9053   56.1040   267.4337   141.0973   0    5  0 
 509.302732   5.38705   20.5158  112.0930   56.2354   267.2130   141.0269   0    5  0 
 509.806048   5.42493   20.4435  111.5913   55.7782   267.5689   141.1546   0    5  0 
 510.309364   5.41869   20.6920  111.3482   56.0042   267.7258   141.2645   0    5  0 
 510.812680   5.41602   20.6646  111.4308   56.0179   267.7982   141.1891   0    6  1 
 511.315996   5.41519   20.6650  111.4454   56.0282   267.7891   141.1789   0    6  1 
 511.819312   5.41540   20.6676  111.4408   56.0293   267.3892   141.2691   0    6  1 
 512.322628   5.41531   20.6683  111.4430   56.0322   267.3264   141.2707   0    6  1 
 512.825944   5.45726   20.6259  110.8435   55.5482   267.2875   141.3118   0    6  1 
 513.329260   5.47552   20.8328  110.2723   55.4792   267.2505   141.2260   0    6  1 
 513.832576   5.47366   20.6553  110.5549   55.3891   267.0620   141.2862   0    6  1 
 514.335892   5.48354   20.6458  110.4181   55.2759   267.0966   141.0860   0    6  1 
 514.839208   5.49557   20.6574  110.2198   55.1521   266.9091   141.0278   0    6  1 
 515.342524   5.50663   20.6574  110.0532   55.0323   266.9640   140.9424   0    6  1 
 515.845840   5.51697   20.6614  109.8928   54.9218   267.1367   140.9913   0    6  1 
 516.349156   5.52616   20.6655  109.7503   54.8236   267.3021   140.8912   0    6  1 
 516.852472   5.53865   20.6615  109.5702   54.6851   267.3884   140.9724   0    6  1 
 517.355788   5.54736   20.6618  109.4398   54.5903   267.6313   140.8879   0    6  1 
 517.859104   5.56003   20.6624  109.2534   54.4519   268.0193   141.0746   0    6  1 
 518.362420   5.56975   20.6599  109.1143   54.3441   268.2331   141.2416   0    6  1 
 518.865736   5.58138   20.6631  108.9408   54.2184   268.3893   141.2670   0    6  1 
 519.369052   5.59125   20.6630  108.7973   54.1104   268.4529   141.3775   0    6  1 
 519.872368   5.60340   20.6631  108.6215   53.9767   268.5129   141.3355   0    6  1 
 520.375684   5.61163   20.6658  108.5004   53.8883   268.1386   140.9841   0    6  1 
 520.879000   5.62467   20.6620  108.3177   53.7421   268.0983   140.8305   0    6  1 
 521.382316   5.63279   20.6646  108.1984   53.6546   267.6489   140.8463   0    6  1 
 521.885632   5.64735   20.6649  107.9912   53.4943   267.3595   140.7822   0    6  1 
 522.388948   5.65432   20.6601  107.8997   53.4144   266.9740   140.9307   0    6  1 
 522.892264   5.66872   20.6621  107.6933   53.2563   267.0474   141.0617   0    6  1 
 523.395580   5.67683   20.6631  107.5790   53.1677   266.8763   141.1887   0    6  1 
 523.898896   5.69013   20.6623  107.3938   53.0198   266.8657   141.1331   0    6  1 
 524.402212   5.69879   20.6622  107.2741   52.9241   266.9958   141.1907   0    6  1 
 524.905528   5.71169   20.6627  107.0945   52.7812   267.1997   141.2629   0    6  1 
 525.408844   5.72003   20.6628  106.9795   52.6890   267.1183   141.2587   0    6  1 
 525.912160   5.72919   20.6634  106.8535   52.5880   266.9870   141.3389   0    6  1 
 526.415476   5.74216   20.6603  106.6794   52.4417   267.1946   141.4334   0    6  1 
 526.918792   5.75233   20.6620  106.5394   52.3299   267.0327   141.5702   0    6  0 
 527.422108   5.76297   20.6631  106.3939   52.2125   267.1088   141.4587   0    6  0 
 527.925424   5.72066   20.7184  106.9062   52.7234   266.8534   141.4461   0    6  0 
 528.428740   5.73148   20.9657  106.4325   52.7509   266.9462   141.4138   0    6  0 
 528.932056   5.73349   20.8175  106.6020   52.6411   266.8223   141.4458   0    7  0 
 529.435372   5.73393   20.8183  106.5980   52.6386   266.8490   141.5741   0    7  1 
 529.938688   5.73359   20.8291  106.5887   52.6500   266.9417   141.5563   0    7  1 
 530.442004   5.73442   20.8211  106.5904   52.6378   266.6618   141.6146   0    7  1 
 530.945320   5.73436   20.8171  106.5983   52.6378   266.9355   141.5585   0    7  1 
 531.448636   5.68149   20.6900  107.5066   53.1572   266.8452   141.4138   0    7  1 
 531.951952   5.68277   20.8501  107.2784   53.2410   266.9731   141.3529   0    7  1 
 532.455268   5.66767   20.8422  107.5053   53.4068   267.1952   141.4580   0    7  1 
 532.958584   5.66172   20.8192  107.6222   53.4607   266.9211   141.3569   0    7  1 
 533.461900   5.64703   20.8098  107.8470   53.6213   266.8332   141.0650   0    7  1 
 533.965216   5.63853   20.8125  107.9675   53.7197   267.0243   140.9432   0    7  1 
 534.468532   5.62568   20.8202  108.1446   53.8697   267.1406   140.8688   0    7  1 
 534.971848   5.61738   20.8168  108.2716   53.9612   267.7856   140.9025   0    7  1 
 535.475164   5.60423   20.8136  108.4687   54.1075   267.7986   141.0417   0    7  1 
 535.978480   5.59666   20.8145  108.5805   54.1941   268.4801   141.3149   0    7  1 
 536.481796   5.58487   20.8136  108.7570   54.3260   268.6311   141.4351   0    7  1 
 536.985112   5.57503   20.8142  108.9035   54.4378   268.5996   141.4492   0    7  1 
 537.488428   5.56477   20.8129  109.0594   54.5523   268.4756   141.3418   0    7  1 
 537.991744   5.55236   20.8097  109.2489   54.6897   268.0035   141.2173   0    7  1 
 538.495060   5.54377   20.8124  109.3765   54.7880   267.8646   141.1512   0    7  1 
 538.998376   5.53168   20.8140  109.5585   54.9246   267.3895   141.0451   0    7  1 
 539.501692   5.52231   20.8142  109.7015   55.0298   267.4412   141.0870   0    7  1 
 540.005008   5.51042   20.8140  109.8844   55.1631   267.0939   141.0352   0    7  1 
 540.508324   5.50139   20.8114  110.0283   55.2626   266.5954   140.9131   0    7  1 
 541.011640   5.48948   20.8137  110.2093   55.3966   266.6428   140.8736   0    7  1 
 541.514956   5.48019   20.8148  110.3525   55.5010   266.6487   140.8699   0    7  1 
 542.018272   5.46974   20.8117  110.5195   55.6154   266.7127   140.8906   0    7  1 
 542.521588   5.45870   20.8128  110.6924   55.7392   266.2972   140.9629   0    7  1 
 543.024904   5.44639   20.8134  110.8859   55.8765   266.3603   140.9663   0    7  1 
 543.528220   5.43760   20.8119  111.0275   55.9741   266.5945   140.8158   0    7  1 
 544.031536   5.42705   20.8128  111.1944   56.0911   266.8327   140.8821   0    7  1 
 544.534852   5.41359   20.8132  111.4087   56.2403   266.7374   141.0152   0    7  1 
 545.038168   5.40353   20.8148  111.5698   56.3527   266.8144   140.9665   0    7  1 
 545.541484   5.39293   20.8157  111.7406   56.4705   266.8101   140.9304   0    7  0 
 546.044800   5.38892   20.7920  111.8402   56.5007   267.0240   141.0948   0    7  0 
 546.548116   5.42037   21.0723  110.9460   56.3355   267.2170   141.0258   0    7  0 
 547.051432   5.41474   20.9517  111.2080   56.3221   267.0059   141.1434   0    8  0 
 547.554748   5.41525   20.9609  111.1892   56.3240   267.0460   141.1479   0    8  1 
 548.058064   5.41631   20.9592  111.1766   56.3124   267.1775   141.0299   0    8  1 
 548.561380   5.41599   20.9625  111.1798   56.3196   266.8535   140.9012   0    8  1 
 549.064696   5.43424   20.9397  110.9260   56.1070   266.6503   140.9191   0    8  1 
 549.568012   5.47632   20.9676  110.2274   55.6644   266.5856   140.8652   0    8  1 
 550.071328   5.47305   20.9870  110.2575   55.7131   266.4440   140.9587   0    8  1 
 550.574644   5.48203   20.9689  110.1476   55.6043   266.4789   140.9826   0    8  1 
 551.077960   5.49332   20.9652  109.9821   55.4789   266.5392   141.0853   0    8  1 
 551.581276   5.50396   20.9452  109.8498   55.3504   266.5097   141.0542   0    8  1 
 552.084592   5.51411   20.9564  109.6817   55.2468   266.7995   141.0888   0    8  1 
 552.587908   5.52482   20.9714  109.5018   55.1394   267.2408   141.0356   0    8  1 
 553.091224   5.53259   20.9611  109.4006   55.0482   267.2951   141.1431   0    8  1 
 553.594540   5.54669   20.9543  109.2010   54.8892   267.6423   140.9632   0    8  1 
 554.097856   5.55486   20.9607  109.0731   54.8042   267.5838   140.9528   0    8  1 
 554.601172   5.56788   20.9634  108.8766   54.6629   267.5427   141.0537   0    8  1 
 555.104488   5.57565   20.9643  108.7631   54.5785   267.7589   141.0150   0    8  1 
 555.607804   5.58934   20.9640  108.5642   54.4272   267.6575   141.0918   0    8  1 
 556.111120   5.59727   20.9646  108.4483   54.3407   267.8154   141.1648   0    8  1 
 556.614436   5.61074   20.9627  108.2568   54.1912   267.7779   141.4512   0    8  1 
 557.117752   5.61855   20.9633  108.1449   54.1058   267.7259   141.5145   0    8  1 
 557.621068   5.62944   20.9613  107.9922   53.9843   267.5055   141.3264   0    8  1 
 558.124384   5.63988   20.9608  107.8447   53.8691   267.0610   140.9579   0    8  1 
 558.627700   5.65100   20.9657  107.6801   53.7493   266.6866   141.0341   0    8  1 
 559.131016   5.66140   20.9648  107.5339   53.6337   266.1748   141.0988   0    8  1 
 559.634332   5.67240   20.9617  107.3846   53.5103   266.1217   141.2352   0    8  1 
 560.137648   5.68299   20.9627  107.2347   53.3936   266.1244   141.2279   0    8  1 
 560.640964   5.69368   20.9625  107.0871   53.2749   266.2462   141.1564   0    8  1 
 561.144280   5.70476   20.9627  106.9328   53.1522   266.4136   141.1733   0    8  1 
 561.647596   5.71498   20.9603  106.7957   53.0377   266.4145   141.1701   0    8  1 
 562.150912   5.72838   20.9595  106.6116   52.8879   266.5921   141.0548   0    8  1 
 562.654228   5.73695   20.9614  106.4927   52.7939   266.4611   141.1990   0    8  1 
 563.157544   5.74970   20.9634  106.3159   52.6533   266.4991   141.1344   0    8  1 
 563.660860   5.75847   20.9657  106.1946   52.5571   266.7435   141.1405   0    8  0 
 564.164176   5.77059   20.9681  106.0275   52.4231   266.9287   141.2805   0    8  0 
 564.667492   5.72803   21.1854  106.3253   53.0341   267.0447   141.2961   0    8  0 
 565.170808   5.72955   21.1652  106.3330   53.0062   266.9908   141.4523   0    8  0 
 565.674124   5.73257   21.1472  106.3179   52.9637   267.0995   141.3762   0    9  1 
 566.177440   5.73391   21.1173  106.3407   52.9323   266.7950   141.4571   0    9  1 
 566.680756   5.73430   21.1159  106.3392   52.9281   266.4847   141.3662   0    9  1 
 567.184072   5.73451   21.1194  106.3333   52.9298   266.6369   141.4116   0    9  1 
 567.687388   5.70650   21.1253  106.7152   53.2507   266.6141   141.5046   0    9  1 
 568.190704   5.67939   21.0139  107.2471   53.4905   266.5070   141.5414   0    9  1 
 568.694020   5.67760   21.1003  107.1599   53.5632   266.5600   141.5443   0    9  1 
 569.197336   5.66425   21.1251  107.3175   53.7296   266.6394   141.3556   0    9  1 
 569.700652   5.65485   21.1221  107.4572   53.8349   266.5807   141.2086   0    9  1 
 570.203968   5.64307   21.1171  107.6347   53.9654   266.9631   141.0779   0    9  1 
 570.707284   5.63425   21.1118  107.7712   54.0626   267.5556   141.2088   0    9  1 
 571.210600   5.62204   21.1141  107.9452   54.2017   267.5423   141.3153   0    9  1 
 571.713916   5.61247   21.1143  108.0865   54.3106   267.5948   141.2279   0    9  1 
 572.217232   5.60193   21.1142  108.2419   54.4297   267.2149   141.1922   0    9  1 
 572.720548   5.59196   21.1165  108.3869   54.5440   267.2003   140.9282   0    9  1 
 573.223864   5.58060   21.1143  108.5588   54.6706   267.2697   140.8800   0    9  1 
 573.727180   5.56926   21.1134  108.7296   54.7980   267.1700   141.0113   0    9  1 
 574.230496   5.56005   21.1150  108.8655   54.9027   266.8103   141.0999   0    9  1 
 574.733812   5.54760   21.1127  109.0572   55.0414   266.6723   141.0657   0    9  1 
 575.237128   5.53838   21.1133  109.1951   55.1451   266.9830   140.9409   0    9  1 
 575.740444   5.52585   21.1128  109.3869   55.2857   267.3407   140.9565   0    9  1 
 576.243760   5.51682   21.1140  109.5247   55.3880   267.4363   141.1960   0    9  1 
 576.747076   5.50451   21.1137  109.7135   55.5258   267.4113   141.1370   0    9  1 
 577.250392   5.49615   21.1169  109.8393   55.6216   267.1301   141.0867   0    9  1 
 577.753708   5.48344   21.1145  110.0397   55.7621   266.7542   141.1095   0    9  1 
 578.257024   5.47334   21.1144  110.1977   55.8749   266.8901   141.0055   0    9  1 
 578.760340   5.46189   21.1140  110.3772   56.0024   266.6695   141.0454   0    9  1 
 579.263656   5.45339   21.1112  110.5150   56.0958   266.4787   140.9917   0    9  1 
 579.766972   5.44027   21.1123  110.7218   56.2422   266.7293   141.0340   0    9  1 
 580.270288   5.43017   21.1115  110.8831   56.3539   266.6710   141.0453   0    9  1 
 580.773604   5.41917   21.1143  111.0552   56.4779   266.9475   140.9269   0    9  1 
 581.276920   5.41089   21.1110  111.1944   56.5683   266.9443   140.9999   0    9  1 
 581.780236   5.39906   21.1145  111.3802   56.7014   267.0122   141.0738   0    9  0 
 582.283552   5.38953   21.1155  111.5334   56.8077   267.1407   141.0062   0    9  0 
 582.786868   5.41276   21.0566  111.2491   56.5183   267.3157   141.3283   0    9  0 
 583.290184   5.42477   21.4698  110.4714   56.6455   267.5166   141.2472   0    9  0 
 583.793500   5.41494   21.2556  110.9360   56.6214   267.3574   141.3540   0   10  1 
 584.296816   5.41588   21.2628  110.9125   56.6173   267.3168   141.3896   0   10  1 
 584.800132   5.41591   21.2637  110.9132   56.6189   267.1653   141.2096   0   10  1 
 585.303448   5.41608   21.2603  110.9170   56.6163   266.9345   141.1206   0   10  1 
 585.806764   5.43876   21.2351  110.5980   56.3536   266.7164   141.1610   0   10  1 
 586.310080   5.47078   21.4164  109.8422   56.1148   266.5959   141.1447   0   10  1 
 586.813396   5.47167   21.2636  110.0496   56.0115   266.7396   141.0781   0   10  1 
 587.316712   5.48349   21.2485  109.8908   55.8735   266.5842   140.9124   0   10  1 
 587.820028   5.49350   21.2565  109.7290   55.7691   266.9203   140.9561   0   10  1 
 588.323344   5.50647   21.2702  109.5129   55.6353   267.4405   141.0100   0   10  1 
 588.826660   5.51544   21.2621  109.3909   55.5328   267.7841   141.0345   0   10  1 
 589.329976   5.52638   21.2545  109.2390   55.4086   267.2970   141.1453   0   10  1 
 589.833292   5.53682   21.2629  109.0719   55.2992   266.9796   141.2287   0   10  1 
 590.336608   5.54916   21.2595  108.8936   55.1617   267.3576   141.8427   0   10  1 
 590.839924   5.55770   21.2661  108.7604   55.0724   268.6792   142.7295   0   10  1 
 591.343240   5.56877   21.2637  108.6014   54.9491   270.3321   143.3222   0   10  1 
 591.846556   5.57882   21.2632  108.4557   54.8384   271.3473   143.4060   0   10  1 
 592.349872   5.59167   21.2621  108.2700   54.6965   270.7001   142.7903   0   10  1 
 592.853188   5.60162   21.2631  108.1260   54.5872   268.7466   141.7954   0   10  1 
 593.356504   5.61150   21.2631  107.9839   54.4780   267.5472   141.3351   0   10  1 
 593.859820   5.62302   21.2644  107.8171   54.3520   266.8542   141.3899   0   10  1 
 594.363136   5.63247   21.2593  107.6890   54.2446   266.9388   141.4896   0   10  1 
 594.866452   5.64454   21.2638  107.5122   54.1137   266.9352   141.5873   0   10  1 
 595.369768   5.65467   21.2632  107.3700   54.0017   266.9670   141.3586   0   10  1 
 595.873084   5.66589   21.2645  107.2104   53.8779   266.4876   141.3535   0   10  1 
 596.376400   5.67488   21.2628  107.0870   53.7773   266.2647   141.2766   0   10  1 
 596.879716   5.68702   21.2636  106.9167   53.6432   266.0567   141.3176   0   10  1 
 597.383032   5.69709   21.2628  106.7782   53.5311   266.3780   141.4323   0   10  1 
 597.886348   5.70901   21.2628  106.6137   53.3987   266.5304   141.3177   0   10  1 
 598.389664   5.71789   21.2651  106.4876   53.3017   266.3937   141.4247   0   10  1 
 598.892980   5.73110   21.2642  106.3086   53.1535   266.5923   141.3514   0   10  1 
 599.396296   5.73997   21.2629  106.1890   53.0541   266.3892   141.4223   0   10  1 
 599.899612   5.75197   21.2631  106.0255   52.9204   266.2443   141.4702   0   10  1 
 600.402928   5.76104   21.2682  105.8962   52.8227   266.3113   141.5874   0   10  0 
 600.906244   5.73354   21.2976  106.2369   53.1522   266.2193   141.4575   0   10  0 
 601.409560   5.73062   21.4418  106.0846   53.2717   266.4362   141.4161   0   10  0 
 601.912876   5.73468   21.3858  106.1074   53.1952   266.5715   141.4061   0   11  1 
 602.416192   5.73360   21.4271  106.0670   53.2329   266.5863   141.3370   0   11  1 
 602.919508   5.73418   21.4191  106.0725   53.2230   266.5941   141.4517   0   11  1 
 603.422824   5.73451   21.4214  106.0668   53.2222   266.3942   141.3510   0   11  1 
 603.926140   5.69986   21.4322  106.5334   53.6214   266.2592   141.0455   0   11  1 
 604.429456   5.66892   21.3186  107.1210   53.9038   266.3611   141.1920   0   11  1 
 604.932772   5.67592   21.4330  106.8740   53.8942   266.5767   141.1372   0   11  1 
 605.436088   5.66601   21.4257  107.0258   54.0027   266.6871   141.1839   0   11  1 
 605.939404   5.65591   21.4221  107.1768   54.1156   267.0463   141.2267   0   11  1 
 606.442720   5.64366   21.4155  107.3621   54.2509   267.2739   141.5306   0   11  1 
 606.946036   5.63446   21.4169  107.4948   54.3563   267.0282   141.5291   0   11  1 
 607.449352   5.62351   21.4113  107.6624   54.4773   266.9727   141.2892   0   11  1 
 607.952668   5.61337   21.4143  107.8068   54.5938   267.9871   141.5727   0   11  1 
 608.455984   5.60142   21.4096  107.9895   54.7266   272.3153   142.9070   0   11  1 
 608.959300   5.59214   21.4147  108.1198   54.8345   278.8588   145.9425   0   11  1 
 609.462616   5.58024   21.4144  108.2970   54.9689   285.5969   149.7005   0   11  1 
 609.965932   5.57223   21.4144  108.4171   55.0598   288.0466   152.2406   0   11  1 
 610.469248   5.56064   21.4140  108.5907   55.1901   285.3873   151.7566   0   11  1 
 610.972564   5.54911   21.4146  108.7645   55.3202   278.2021   148.7784   0   11  1 
 611.475880   5.53917   21.4119  108.9185   55.4306   271.3637   144.8074   0   11  1 
 611.979196   5.52792   21.4111  109.0907   55.5572   267.5313   142.1489   0   11  1 
 612.482512   5.51783   21.4118  109.2445   55.6707   266.9483   141.1806   0   11  1 
 612.985828   5.50678   21.4138  109.4116   55.7959   267.5626   141.1910   0   11  1 
 613.489144   5.49660   21.4139  109.5686   55.9105   267.9431   141.3945   0   11  1 
 613.992460   5.48451   21.4156  109.7529   56.0466   267.6196   141.4730   0   11  1 
 614.495776   5.47276   21.4143  109.9378   56.1771   266.9811   141.3660   0   11  1 
 614.999092   5.46390   21.4142  110.0783   56.2765   266.7008   141.1504   0   11  1 
 615.502408   5.45282   21.4145  110.2519   56.4005   266.4087   140.9987   0   11  1 
 616.005724   5.44104   21.4140  110.4384   56.5312   266.5557   140.9312   0   11  1 
 616.509040   5.43155   21.4108  110.5948   56.6353   266.5489   141.0494   0   11  1 
 617.012356   5.41830   21.4135  110.8025   56.7843   266.7714   141.2227   0   11  1 
 617.515672   5.41158   21.4127  110.9125   56.8587   267.1165   141.2371   0   11  1 
 618.018988   5.39847   21.4154  111.1195   57.0059   267.0503   141.3065   0   11  1 
 618.522304   5.39036   21.4140  111.2526   57.0954   266.9468   141.2907   0   11  0 
 619.025620   5.40235   21.3660  111.1345   56.9353   267.3801   141.5687   0   11  0 
 619.528936   5.42600   21.7959  110.1395   56.9441   267.4476   141.5268   0   11  0 
 620.032252   5.41408   21.5555  110.6788   56.9279   267.1870   141.6373   0   12  1 
 620.535568   5.41612   21.5664  110.6330   56.9130   267.3230   141.4689   0   12  1 
 621.038884   5.41583   21.5641  110.6430   56.9167   267.1361   141.4067   0   12  1 
 621.542200   5.41601   21.5615  110.6460   56.9146   266.8607   141.2225   0   12  1 
 622.045516   5.46060   21.5265  109.9967   56.4041   266.8458   141.1830   0   12  1 
 622.548832   5.46798   21.5457  109.8590   56.3356   267.0767   141.1842   0   12  1 
 623.052148   5.47723   21.5478  109.7157   56.2359   267.3151   141.2487   0   12  1 
 623.555464   5.48787   21.5508  109.5502   56.1216   267.7884   141.4610   0   12  1 
 624.058780   5.49893   21.5604  109.3703   56.0064   268.2094   141.4584   0   12  1 
 624.562096   5.51215   21.5562  109.1767   55.8589   267.6055   141.4157   0   12  1 
 625.065412   5.51985   21.5630  109.0530   55.7792   266.5858   141.3286   0   12  1 
 625.568728   5.53333   21.5675  108.8451   55.6339   267.8334   142.6405   0   12  1 
 626.072044   5.54169   21.5647  108.7271   55.5405   274.3894   146.8658   0   12  1 
 626.575360   5.55272   21.5630  108.5662   55.4181   288.2275   154.6644   0   12  1 
 627.078676   5.56136   21.5666  108.4358   55.3257   306.3404   163.7883   0   12  1 
 627.581992   5.57416   21.5636  108.2521   55.1826   319.8821   169.8868   0   12  1 
 628.085308   5.58287   21.5625  108.1274   55.0861   322.5714   169.3871   0   12  1 
 628.588624   5.59742   21.5634  107.9151   54.9260   312.5007   162.6224   0   12  1 
 629.091940   5.60433   21.5634  107.8175   54.8508   295.0338   153.4599   0   12  1 
 629.595256   5.61908   21.5640  107.6037   54.6870   279.3515   146.1422   0   12  1 
 630.098572   5.62576   21.5651  107.5076   54.6142   270.1221   142.5201   0   12  1 
 630.601888   5.63793   21.5645  107.3358   54.4793   266.8981   141.4682   0   12  1 
 631.105204   5.64726   21.5663  107.2017   54.3775   266.5665   141.5783   0   12  1 
 631.608520   5.66135   21.5641  107.0050   54.2194   266.6905   141.8695   0   12  1 
 632.111836   5.66815   21.5627  106.9133   54.1433   266.6245   141.5234   0   12  1 
 632.615152   5.68045   21.5631  106.7405   54.0070   266.8021   141.3962   0   12  1 
 633.118468   5.68969   21.5689  106.6050   53.9079   266.5302   141.3910   0   12  1 
 633.621784   5.70182   21.5644  106.4425   53.7701   266.3972   141.2889   0   12  1 
 634.125100   5.71176   21.5643  106.3066   53.6598   266.4086   141.4444   0   12  1 
 634.628416   5.72351   21.5645  106.1444   53.5288   266.2266   141.5253   0   12  1 
 635.131732   5.73479   21.5675  105.9859   53.4048   266.6607   141.3460   0   12  1 
 635.635048   5.74477   21.5637  105.8555   53.2915   266.6630   141.3208   0   12  1 
 636.138364   5.75399   21.5664  105.7276   53.1903   266.5247   141.2684   0   12  0 
 636.641680   5.76581   21.5673  105.5671   53.0586   266.6549   141.4438   0   12  0 
 637.144996   5.71219   21.8229  105.9585   53.8170   266.5722   141.2144   0   12  0 
 637.648312   5.73166   21.7438  105.7990   53.5514   266.6389   141.2676   0   12  0 
 638.151628   5.73232   21.7536  105.7792   53.5517   266.7085   141.2791   0   13  1 
 638.654944   5.73333   21.7291  105.8001   53.5275   266.6393   141.3159   0   13  1 
 639.158260   5.73431   21.7215  105.7990   53.5133   266.6350   141.3909   0   13  1 
 639.661576   5.73445   21.7154  105.8078   53.5096   266.6263   141.5130   0   13  1 
 640.164892   5.68019   21.6419  106.6619   54.0807   266.5175   141.3291   0   13  1 
 640.668208   5.68243   21.7169  106.5321   54.1010   266.6393   141.1465   0   13  1 
 641.171524   5.67273   21.7008  106.6938   54.2025   266.8011   141.2206   0   13  1 
 641.674840   5.66293   21.7302  106.7932   54.3311   267.2324   141.4929   0   13  1 
 642.178156   5.65142   21.7268  106.9644   54.4603   267.5101   141.6078   0   13  1 
 642.681472   5.64164   21.7180  107.1174   54.5668   267.1998   141.4457   0   13  1 
 643.184788   5.63048   21.7154  107.2836   54.6921   267.1273   141.1697   0   13  1 
 643.688104   5.62041   21.7120  107.4351   54.8044   271.3557   142.6678   0   13  1 
 644.191420   5.60888   21.7147  107.6008   54.9369   284.7662   148.2988   0   13  1 
 644.694736   5.59884   21.7108  107.7539   55.0486   309.8110   160.0104   0   13  1 
 645.198052   5.58751   21.7131  107.9191   55.1781   340.9349   175.9486   0   13  1 
 645.701368   5.57915   21.7161  108.0389   55.2748   366.1689   189.6480   0   13  1 
 646.204684   5.56783   21.7146  108.2104   55.4020   372.4128   194.8494   0   13  1 
 646.708000   5.55282   21.7138  108.4347   55.5707   355.9287   188.1882   0   13  1 
 647.211316   5.54641   21.7149  108.5322   55.6442   325.7834   173.5623   0   13  1 
 647.714632   5.53649   21.7128  108.6854   55.7550   295.5592   157.9519   0   13  1 
 648.217948   5.52513   21.7151  108.8551   55.8840   275.6140   146.8295   0   13  1 
 648.721264   5.51030   21.7138  109.0824   56.0498   267.9540   141.8149   0   13  1 
 649.224580   5.50353   21.7118  109.1909   56.1252   267.3003   141.1400   0   13  1 
 649.727896   5.49344   21.7122  109.3464   56.2388   268.1211   141.3328   0   13  1 
 650.231212   5.48279   21.7151  109.5080   56.3599   268.4525   141.6039   0   13  1 
 650.734528   5.46740   21.7138  109.7482   56.5317   267.8742   141.5193   0   13  1 
 651.237844   5.46147   21.7143  109.8424   56.5985   267.1730   141.2174   0   13  1 
 651.741160   5.44860   21.7145  110.0446   56.7423   266.8264   140.9599   0   13  1 
 652.244476   5.43945   21.7145  110.1902   56.8449   266.8894   140.8134   0   13  1 
 652.747792   5.42767   21.7141  110.3772   56.9761   266.7247   140.7958   0   13  1 
 653.251108   5.41880   21.7129  110.5229   57.0746   267.1107   141.0266   0   13  1 
 653.754424   5.40588   21.7138  110.7277   57.2185   267.3742   141.0812   0   13  1 
 654.257740   5.39712   21.7140  110.8691   57.3159   267.5413   141.1321   0   13  0 
 654.761056   5.38496   21.7180  111.0608   57.4537   267.5059   141.0928   0   13  0 
 655.264372   5.41886   21.8772  110.2908   57.1815   267.6967   141.1178   0   13  0 
 655.767688   5.42457   21.9979  110.0257   57.1940   267.7804   141.2063   0   14  0 
 656.271004   5.41681   21.8686  110.3409   57.2014   267.7520   141.0200   0   14  1 
 656.774320   5.41625   21.8627  110.3595   57.2052   267.7560   141.0522   0   14  1 
 657.277636   5.41574   21.8670  110.3641   57.2152   267.7402   141.0494   0   14  1 
 657.780952   5.42004   21.8602  110.3084   57.1646   267.3283   140.9746   0   14  1 
 658.284268   5.47206   21.9416  109.3755   56.6427   267.3018   140.8749   0   14  1 
 658.787584   5.46918   21.8204  109.6023   56.6014   267.5257   141.1709   0   14  1 
 659.290900   5.47975   21.8701  109.3699   56.5161   268.0972   141.4065   0   14  1 
 659.794216   5.49108   21.8772  109.1871   56.3958   268.7061   141.4047   0   14  1 
 660.297532   5.50157   21.8496  109.0697   56.2645   268.4137   141.4520   0   14  1 
 660.800848   5.51308   21.8515  108.8942   56.1395   267.4299   141.0715   0   14  1 
 661.304164   5.52430   21.8677  108.7042   56.0264   269.3181   142.2299   0   14  1 
 661.807480   5.53347   21.8673  108.5688   55.9254   281.2238   148.6669   0   14  1 
 662.310796   5.54534   21.8608  108.4027   55.7907   308.7252   163.1953   0   14  1 
 662.814112   5.55447   21.8649  108.2638   55.6934   350.3246   184.4681   0   14  1 
 663.317428   5.56680   21.8663  108.0809   55.5577   391.7683   205.3752   0   14  1 
 663.820744   5.57588   21.8644  107.9518   55.4568   415.1943   216.2849   0   14  1 
 664.324060   5.58652   21.8629  107.8001   55.3387   408.1900   211.4443   0   14  1 
 664.827376   5.59648   21.8646  107.6539   55.2299   374.8346   193.4956   0   14  1 
 665.330692   5.60799   21.8664  107.4858   55.1030   331.3437   171.2171   0   14  1 
 665.834008   5.61777   21.8653  107.3476   54.9940   295.2151   153.5268   0   14  1 
 666.337324   5.62949   21.8645  107.1825   54.8642   274.6098   144.1580   0   14  1 
 666.840640   5.63935   21.8656  107.0408   54.7557   267.3470   141.3170   0   14  1 
 667.343956   5.65066   21.8629  106.8853   54.6286   266.6713   141.2424   0   14  1 
 667.847272   5.66026   21.8641  106.7493   54.5229   267.1651   141.4542   0   14  1 
 668.350588   5.67182   21.8639  106.5874   54.3940   266.6944   141.4402   0   14  1 
 668.853904   5.68295   21.8638  106.4328   54.2701   266.3481   141.1600   0   14  1 
 669.357220   5.69336   21.8638  106.2885   54.1542   266.2942   141.0487   0   14  1 
 669.860536   5.70435   21.8629  106.1376   54.0312   266.3073   140.9832   0   14  1 
 670.363852   5.71487   21.8660  105.9897   53.9161   266.1898   140.8638   0   14  1 
 670.867168   5.72596   21.8663  105.8370   53.7921   266.1727   141.1369   0   14  1 
 671.370484   5.73614   21.8640  105.7017   53.6773   266.5106   141.2091   0   14  1 
 671.873800   5.74858   21.8648  105.5317   53.5385   266.4788   141.1793   0   14  1 
 672.377116   5.75731   21.8632  105.4164   53.4405   266.4116   141.2591   0   14  0 
 672.880432   5.76541   21.8700  105.2987   53.3540   266.7331   141.2690   0   14  0 
 673.383748   5.71940   22.1446  105.5543   54.0369   266.6893   141.3573   0   14  0 
 673.887064   5.73246   22.0462  105.5119   53.8336   266.4831   141.2878   0   14  0 
 674.390380   5.73304   22.0273  105.5320   53.8176   266.4458   141.1156   0   15  1 
 674.893696   5.73398   22.0256  105.5229   53.8075   266.6709   141.2186   0   15  1 
 675.397012   5.73432   22.0222  105.5249   53.8029   266.7768   141.1572   0   15  1 
 675.900328   5.73459   22.0169  105.5306   53.7986   266.6342   141.0820   0   15  1 
 676.403644   5.69328   22.0344  106.0778   54.2776   266.6912   141.1443   0   15  1 
 676.906960   5.68719   22.0110  106.1994   54.3342   266.8158   141.1787   0   15  1 
 677.410276   5.67467   22.0237  106.3599   54.4846   267.0373   141.0623   0   15  1 
 677.913592   5.66485   22.0273  106.4951   54.5989   267.4794   141.3533   0   15  1 
 678.416908   5.65372   22.0218  106.6629   54.7223   267.9667   141.4674   0   15  1 
 678.920224   5.64472   22.0228  106.7920   54.8254   267.4938   141.2200   0   15  1 
 679.423540   5.63189   22.0179  106.9840   54.9688   267.6756   141.1077   0   15  1 
 679.926856   5.62371   22.0146  107.1085   55.0600   273.1600   143.5614   0   15  1 
 680.430172   5.61056   22.0170  107.2970   55.2110   291.9105   152.7008   0   15  1 
 680.933488   5.59883   22.0135  107.4747   55.3423   327.6909   170.7863   0   15  1 
 681.436804   5.58910   22.0137  107.6180   55.4524   375.4299   195.1516   0   15  1 
 681.940120   5.58051   22.0097  107.7510   55.5479   417.5818   216.6766   0   15  1 
 682.443436   5.56758   22.0138  107.9382   55.6967   433.8733   225.3972   0   15  1 
 682.946752   5.55906   22.0154  108.0637   55.7940   416.5142   216.6268   0   15  1 
 683.450068   5.54624   22.0156  108.2564   55.9391   373.8578   194.7837   0   15  1 
 683.953384   5.53789   22.0154  108.3826   56.0336   325.6907   170.2023   0   15  1 
 684.456700   5.52505   22.0157  108.5780   56.1785   289.9627   152.2030   0   15  1 
 684.960016   5.51460   22.0154  108.7379   56.2962   272.3485   143.2958   0   15  1 
 685.463332   5.50380   22.0154  108.9036   56.4176   267.1783   141.1715   0   15  1 
 685.966648   5.49300   22.0117  109.0756   56.5374   267.4954   141.5130   0   15  1 
 686.469964   5.48210   22.0137  109.2419   56.6609   267.9654   141.7276   0   15  1 
 686.973280   5.47293   22.0137  109.3848   56.7641   267.8850   141.4824   0   15  1 
 687.476596   5.46120   22.0158  109.5659   56.8967   267.2781   140.9217   0   15  1 
 687.979912   5.45037   22.0159  109.7357   57.0182   267.0137   140.7685   0   15  1 
 688.483228   5.43985   22.0156  109.9032   57.1358   267.1295   140.7402   0   15  1 
 688.986544   5.42900   22.0149  110.0763   57.2568   267.1749   140.9952   0   15  1 
 689.489860   5.41969   22.0135  110.2277   57.3606   267.2974   141.0475   0   15  1 
 689.993176   5.40816   22.0137  110.4129   57.4891   267.5000   141.1218   0   15  1 
 690.496492   5.39719   22.0137  110.5898   57.6111   267.4467   141.3054   0   15  0 
 690.999808   5.38638   22.0162  110.7616   57.7329   267.4007   141.3617   0   15  0 
 691.503124   5.42280   21.9573  110.2689   57.2972   267.6342   141.3130   0   15  0 
 692.006440   5.41987   22.2012  109.9595   57.4805   267.6765   141.2290   0   15  0 
 692.509756   5.41610   22.1723  110.0641   57.5059   267.8763   141.1707   0   16  1 
 693.013072   5.41618   22.1633  110.0787   57.5011   267.6715   141.2199   0   16  1 
 693.516388   5.41582   22.1647  110.0843   57.5074   267.8110   141.1663   0   16  1 
 694.019704   5.41590   22.1676  110.0815   57.5099   267.6622   141.1163   0   16  1 
 694.523020   5.45595   22.1093  109.5389   57.0337   267.1658   141.0159   0   16  1 
 695.026336   5.47889   22.3007  108.9017   56.8974   267.0281   141.0509   0   16  1 
 695.529652   5.47544   22.1537  109.1791   56.8474   267.4721   141.2516   0   16  1 
 696.032968   5.48877   22.1482  108.9842   56.6975   267.9475   141.7014   0   16  1 
 696.536284   5.49668   22.1605  108.8486   56.6182   267.9633   141.8714   0   16  1 
 697.039600   5.50810   22.1629  108.6737   56.4948   267.1112   141.6303   0   16  1 
 697.542916   5.51819   22.1659  108.5194   56.3857   267.6090   141.4716   0   16  1 
 698.046232   5.52754   22.1695  108.3751   56.2849   275.0620   144.5309   0   16  1 
 698.549548   5.53973   22.1610  108.2076   56.1457   296.6464   154.7211   0   16  1 
 699.052864   5.54812   22.1652  108.0772   56.0557   333.8054   173.0814   0   16  1 
 699.556180   5.56078   22.1637  107.8943   55.9152   376.8704   195.3997   0   16  1 
 700.059496   5.57132   22.1646  107.7394   55.7994   408.6730   212.4181   0   16  1 
 700.562812   5.58175   22.1646  107.5887   55.6841   414.0777   216.0882   0   16  1 
 701.066128   5.59276   22.1667  107.4267   55.5638   390.2518   204.7767   0   16  1 
 701.569444   5.60317   22.1644  107.2808   55.4472   348.6325   183.7301   0   16  1 
 702.072760   5.61414   22.1641  107.1237   55.3255   307.8071   162.6876   0   16  1 
 702.576076   5.62598   22.1650  106.9537   55.1945   280.7633   148.4766   0   16  1 
 703.079392   5.63559   22.1645  106.8187   55.0877   269.4343   142.3095   0   16  1 
 703.582708   5.64529   22.1662  106.6798   54.9810   267.2721   141.1872   0   16  1 
 704.086024   5.65545   22.1596  106.5469   54.8644   267.7156   141.5697   0   16  1 
 704.589340   5.66899   22.1656  106.3480   54.7170   267.9734   141.6371   0   16  1 
 705.092656   5.67873   22.1658  106.2122   54.6087   267.5048   141.4047   0   16  1 
 705.595972   5.68896   22.1661  106.0710   54.4950   267.1401   141.2725   0   16  1 
 706.099288   5.69979   22.1647  105.9225   54.3736   266.9128   141.1544   0   16  1 
 706.602604   5.71035   22.1660  105.7760   54.2563   266.7785   141.1844   0   16  1 
 707.105920   5.72133   22.1644  105.6286   54.1329   266.8449   141.2471   0   16  1 
 707.609236   5.73242   22.1672  105.4734   54.0106   267.0445   141.3621   0   16  1 
 708.112552   5.74281   22.1641  105.3367   53.8928   266.8533   141.3345   0   16  1 
 708.615868   5.75321   22.1656  105.1944   53.7772   266.4677   141.4061   0   16  0 
 709.119184   5.76507   22.1671  105.0324   53.6452   266.8100   141.4112   0   16  0 
 709.622500   5.72013   22.3350  105.4164   54.2534   266.5549   141.4544   0   16  0 
 710.125816   5.72951   22.3524  105.2660   54.1589   266.6555   141.5184   0   16  0 
 710.629132   5.73519   22.2867  105.2813   54.0573   266.5014   141.4979   0   17  1 
 711.132448   5.73328   22.3343  105.2426   54.1086   266.8261   141.4762   0   17  1 
 711.635764   5.73427   22.3236  105.2462   54.0927   266.8259   141.5854   0   17  1 
 712.139080   5.73443   22.3220  105.2480   54.0915   267.0441   141.4614   0   17  1 
 712.642396   5.70116   22.3209  105.7093   54.4697   266.8427   141.0363   0   17  1 
 713.145712   5.68501   22.3182  105.9411   54.6520   266.9307   141.1986   0   17  1 
 713.649028   5.67681   22.3071  106.0747   54.7398   267.1618   141.1306   0   17  1 
 714.152344   5.66067   22.3460  106.2476   54.9461   267.6856   141.1944   0   17  1 
 714.655660   5.65343   22.3217  106.3871   55.0152   268.3190   141.4869   0   17  1 
 715.158976   5.64304   22.3189  106.5409   55.1322   268.2466   141.0928   0   17  1 
 715.662292   5.63403   22.3180  106.6734   55.2349   267.4512   140.9124   0   17  1 
 716.165608   5.62155   22.3182  106.8543   55.3770   269.0717   142.3202   0   17  1 
 716.668924   5.61144   22.3158  107.0052   55.4910   278.4442   147.7823   0   17  1 
 717.172240   5.60009   22.3156  107.1720   55.6196   299.6706   159.4825   0   17  1 
 717.675556   5.58961   22.3169  107.3252   55.7394   329.9081   175.1236   0   17  1 
 718.178872   5.58123   22.3123  107.4555   55.8326   358.3013   189.1651   0   17  1 
 718.682188   5.56936   22.3142  107.6297   55.9680   371.7765   194.7539   0   17  1 
 719.185504   5.55778   22.3118  107.8056   56.0978   363.2686   188.6262   0   17  1 
 719.688820   5.54729   22.3156  107.9585   56.2192   336.6265   173.5667   0   17  1 
 720.192136   5.53624   22.3150  108.1258   56.3437   305.3644   157.9254   0   17  1 
 720.695452   5.52652   22.3173  108.2708   56.4551   282.0052   146.8140   0   17  1 
 721.198768   5.51499   22.3142  108.4508   56.5833   270.1489   141.8634   0   17  1 
 721.702084   5.50449   22.3158  108.6095   56.7027   266.7557   141.1504   0   17  1 
 722.205400   5.49345   22.3152  108.7798   56.8269   267.1016   141.6825   0   17  1 
 722.708716   5.48302   22.3164  108.9403   56.9454   267.3946   141.6497   0   17  1 
 723.212032   5.47392   22.3127  109.0881   57.0456   267.2383   141.3158   0   17  1 
 723.715348   5.46141   22.3140  109.2813   57.1867   266.9819   140.9829   0   17  1 
 724.218664   5.45246   22.3152  109.4201   57.2877   266.8466   140.9089   0   17  1 
 724.721980   5.44000   22.3158  109.6159   57.4282   266.8560   140.8570   0   17  1 
 725.225296   5.43129   22.3163  109.7542   57.5257   266.7951   141.0178   0   17  1 
 725.728612   5.41868   22.3151  109.9565   57.6664   266.9293   141.0598   0   17  1 
 726.231928   5.40918   22.3161  110.1083   57.7736   266.9252   140.9345   0   17  1 
 726.735244   5.39810   22.3167  110.2860   57.8973   267.0440   141.1079   0   17  0 
 727.238560   5.38862   22.3171  110.4397   58.0041   267.1278   141.2033   0   17  0 
 727.741876   5.40745   22.2590  110.2285   57.7617   267.3452   141.2635   0   17  0 
 728.245192   5.42340   22.5988  109.4701   57.7944   267.6752   141.0802   0   17  0 
 728.748508   5.41504   22.4536  109.8220   57.7997   267.4196   141.2240   0   18  1 
 729.251824   5.41583   22.4672  109.7914   57.8008   267.5228   141.1641   0   18  1 
 729.755140   5.41589   22.4658  109.7943   57.8009   267.5981   141.0741   0   18  1 
 730.258456   5.41579   22.4662  109.7980   57.8036   267.5468   141.0761   0   18  1 
 730.761772   5.45466   22.4101  109.2721   57.3413   267.3660   141.1058   0   18  1 
 731.265088   5.48869   22.6355  108.4086   57.1016   267.1941   140.9907   0   18  1 
 731.768404   5.47378   22.4503  108.9240   57.1564   267.5093   141.0475   0   18  1 
 732.271720   5.48684   22.4523  108.7226   57.0137   267.3068   141.3518   0   18  1 
 732.775036   5.49532   22.4627  108.5802   56.9270   267.5058   141.6050   0   18  1 
 733.278352   5.50724   22.4601  108.4046   56.7945   267.2116   141.6180   0   18  1 
 733.781668   5.51620   22.4605  108.2719   56.6963   266.9425   141.4160   0   18  1 
 734.284984   5.52884   22.4639  108.0788   56.5588   268.9912   141.8469   0   18  1 
 734.788300   5.53739   22.4674  107.9478   56.4669   276.3233   144.4767   0   18  1 
 735.291616   5.55013   22.4644  107.7643   56.3240   290.0428   150.7823   0   18  1 
 735.794932   5.56076   22.4676  107.6049   56.2088   307.2738   159.8049   0   18  1 
 736.298248   5.57015   22.4649  107.4724   56.1034   320.3606   167.6021   0   18  1 
 736.801564   5.58181   22.4661  107.3012   55.9750   321.9334   170.1969   0   18  1 
 737.304880   5.59156   22.4655  107.1619   55.8667   310.9732   165.9610   0   18  1 
 737.808196   5.60326   22.4667  106.9922   55.7373   294.1110   157.2858   0   18  1 
 738.311512   5.61254   22.4651  106.8629   55.6339   278.8020   148.8354   0   18  1 
 738.814828   5.62439   22.4658  106.6924   55.5026   269.7824   143.3359   0   18  1 
 739.318144   5.63352   22.4663  106.5640   55.4018   267.3336   141.1669   0   18  1 
 739.821460   5.64748   22.4655  106.3673   55.2450   267.6178   140.9791   0   18  1 
 740.324776   5.65497   22.4641  106.2647   55.1619   267.8103   141.3494   0   18  1 
 740.828092   5.66610   22.4671  106.1048   55.0394   267.5452   141.4979   0   18  1 
 741.331408   5.67618   22.4655  105.9665   54.9259   267.2988   141.2188   0   18  1 
 741.834724   5.69056   22.4638  105.7705   54.7641   266.7802   141.2933   0   18  1 
 742.338040   5.69777   22.4655  105.6687   54.6855   266.8142   141.1199   0   18  1 
 742.841356   5.70901   22.4662  105.5140   54.5600   266.9906   141.0041   0   18  1 
 743.344672   5.71875   22.4649  105.3832   54.4506   267.1594   141.2996   0   18  1 
 743.847988   5.73129   22.4653  105.2115   54.3100   267.2615   141.3589   0   18  1 
 744.351304   5.74303   22.4663  105.0506   54.1789   267.3701   141.3998   0   18  1 
 744.854620   5.75247   22.4662  104.9247   54.0733   267.3783   141.2813   0   18  0 
 745.357936   5.76110   22.4702  104.8034   53.9794   267.3606   141.3578   0   18  0 
 745.861252   5.73968   22.5248  105.0215   54.2554   267.2700   141.2581   0   18  0 
 746.364568   5.72994   22.6434  104.9894   54.4359   267.5611   141.4015   0   18  0 
 746.867884   5.73358   22.6296  104.9608   54.3885   267.4645   141.2198   0   19  1 
 747.371200   5.73348   22.6181  104.9810   54.3842   267.4341   141.4818   0   19  1 
 747.874516   5.73404   22.6175  104.9756   54.3792   267.3951   141.4907   0   19  1 
 748.377832   5.73421   22.6223  104.9680   54.3814   267.3681   141.3399   0   19  1 
 748.881148   5.70642   22.6253  105.3473   54.7004   267.0197   141.1348   0   19  1 
 749.384464   5.68093   22.5243  105.8466   54.9322   267.0087   141.0715   0   19  1 
 749.887780   5.67567   22.6323  105.7702   55.0557   266.9164   141.1620   0   19  1 
 750.391096   5.66575   22.6394  105.9014   55.1733   267.4460   141.1582   0   19  1 
 750.894412   5.65487   22.6234  106.0800   55.2888   267.9839   141.3353   0   19  1 
 751.397728   5.64486   22.6157  106.2349   55.3988   268.1730   141.3240   0   19  1 
 751.901044   5.63306   22.6188  106.4005   55.5351   267.8735   141.2065   0   19  1 
 752.404360   5.62459   22.6180  106.5259   55.6319   267.4503   140.9963   0   19  1 
 752.907676   5.61172   22.6176  106.7130   55.7779   267.3897   141.6528   0   19  1 
 753.410992   5.60232   22.6143  106.8553   55.8838   270.1395   143.8445   0   19  1 
 753.914308   5.58999   22.6167  107.0332   56.0250   276.0708   147.5149   0   19  1 
 754.417624   5.58139   22.6157  107.1622   56.1224   283.0496   150.7679   0   19  1 
 754.920940   5.56851   22.6175  107.3506   56.2697   286.9389   151.8688   0   19  1 
 755.424256   5.56082   22.6164  107.4672   56.3566   285.7677   150.2456   0   19  1 
 755.927572   5.54750   22.6141  107.6704   56.5065   280.4932   146.8645   0   19  1 
 756.430888   5.53734   22.6143  107.8235   56.6219   273.6243   143.4690   0   19  1 
 756.934204   5.52618   22.6153  107.9912   56.7487   269.0838   141.5464   0   19  1 
 757.437520   5.51657   22.6155  108.1364   56.8576   267.0989   141.3273   0   19  1 
 757.940836   5.50566   22.6177  108.3011   56.9822   267.0859   141.5176   0   19  1 
 758.444152   5.49446   22.6150  108.4775   57.1072   267.1325   141.7647   0   19  1 
 758.947468   5.48424   22.6164  108.6332   57.2232   267.0697   141.4795   0   19  1 
 759.450784   5.47202   22.6146  108.8256   57.3603   267.1315   141.0477   0   19  1 
 759.954100   5.46260   22.6157  108.9716   57.4666   267.1316   140.9926   0   19  1 
 760.457416   5.45179   22.6131  109.1448   57.5866   267.0826   140.9078   0   19  1 
 760.960732   5.44099   22.6146  109.3133   57.7088   267.0982   141.0269   0   19  1 
 761.464048   5.43013   22.6155  109.4839   57.8316   267.2220   140.9455   0   19  1 
 761.967364   5.42142   22.6164  109.6217   57.9302   267.6977   140.8515   0   19  1 
 762.470680   5.40831   22.6170  109.8308   58.0770   267.6679   140.7861   0   19  1 
 762.973996   5.39816   22.6173  109.9938   58.1907   267.5276   140.9017   0   19  1 
 763.477312   5.38694   22.6188  110.1737   58.3170   267.4970   140.9972   0   19  0 
 763.980628   5.41418   22.5661  109.8216   57.9860   267.8573   140.9820   0   19  0 
 764.483944   5.42436   23.0095  108.9917   58.1422   267.8809   141.1887   0   19  0 
 764.987260   5.41277   22.7771  109.5297   58.1322   268.1432   141.1519   0   20  1 
 765.490576   5.41478   22.7710  109.5091   58.1073   267.8932   140.9173   0   20  1 
 765.993892   5.41554   22.7686  109.5031   58.0990   267.8140   141.0990   0   20  1 
 766.497208   5.41583   22.7698  109.4991   58.0981   268.0004   140.9887   0   20  1 
 767.000524   5.41626   22.7685  109.4964   58.0938   267.6641   141.0385   0   20  1 
 767.503840   5.48019   22.7584  108.5117   57.3806   267.5815   140.8944   0   20  1 
 768.007156   5.47137   22.7629  108.6505   57.4819   267.6586   141.0004   0   20  1 
 768.510472   5.48237   22.7579  108.4906   57.3582   267.2859   141.0623   0   20  1 
 769.013788   5.49503   22.7795  108.2684   57.2319   267.5938   141.0953   0   20  1 
 769.517104   5.50389   22.7540  108.1737   57.1190   267.5967   141.3322   0   20  1 
 770.020420   5.51545   22.7623  107.9895   56.9963   267.2210   141.3887   0   20  1 
 770.523736   5.52376   22.7733  107.8509   56.9117   266.8900   141.2906   0   20  1 
 771.027052   5.53759   22.7742  107.6446   56.7591   267.0625   140.9241   0   20  1 
 771.530368   5.54648   22.7606  107.5340   56.6531   267.7291   141.0587   0   20  1 
 772.033684   5.55759   22.7669  107.3631   56.5333   268.9425   141.6469   0   20  1 
 772.537000   5.56697   22.7650  107.2290   56.4289   269.9598   142.4008   0   20  1 
 773.040316   5.58055   22.7665  107.0293   56.2786   270.4933   142.9533   0   20  1 
 773.543632   5.58842   22.7618  106.9242   56.1896   269.4583   142.7855   0   20  1 
 774.046948   5.60091   22.7647  106.7411   56.0520   267.8054   141.8495   0   20  1 
 774.550264   5.61348   22.7649  106.5597   55.9117   266.7199   141.0143   0   20  1 
 775.053580   5.62112   22.7656  106.4514   55.8279   267.0541   140.6196   0   20  1 
 775.556896   5.63123   22.7641  106.3106   55.7142   267.4697   140.7598   0   20  1 
 776.060212   5.64378   22.7665  106.1312   55.5760   267.8112   141.0955   0   20  1 
 776.563528   5.65487   22.7674  105.9736   55.4530   267.5858   141.1117   0   20  1 
 777.066844   5.66291   22.7673  105.8635   55.3637   267.2120   140.8673   0   20  1 
 777.570160   5.67620   22.7642  105.6822   55.2131   266.7079   140.7296   0   20  1 
 778.073476   5.68669   22.7660  105.5351   55.0968   266.7122   140.7318   0   20  1 
 778.576792   5.69715   22.7657  105.3915   54.9797   266.5334   140.6404   0   20  1 
 779.080108   5.70555   22.7632  105.2802   54.8844   266.6361   140.7635   0   20  1 
 779.583424   5.71860   22.7661  105.0975   54.7402   266.6284   140.8910   0   20  1 
 780.086740   5.72968   22.7670  104.9463   54.6162   266.8713   141.1590   0   20  1 
 780.590056   5.73988   22.7672  104.8082   54.5020   267.1276   141.2019   0   20  1 
 781.093372   5.75015   22.7670  104.6705   54.3870   266.6812   141.0810   0   20  1 
 781.596688   5.76166   22.7666  104.5175   54.2572   266.7284   141.0863   0   20  0 
 782.100004   5.73503   22.7995  104.8346   54.5804   267.1448   141.1230   0   20  0 
 782.603320   5.72532   22.9396  104.7705   54.7725   267.0794   141.0891   0   20  0 
 783.106636   5.73712   22.9877  104.5436   54.6673   266.8334   141.0799   0   20  0 
 783.609952   5.73392   22.9152  104.6918   54.6642   266.8011   141.1643   0   21  1 
 784.113268   5.73369   22.9324  104.6722   54.6777   266.5977   141.2219   0   21  1 
 784.616584   5.73440   22.9188  104.6838   54.6638   266.6065   141.2092   0   21  1 
 785.119900   5.73435   22.9431  104.6522   54.6793   266.6951   141.1487   0   21  1 
 785.623216   5.68476   22.8193  105.5132   55.1738   266.8768   140.9967   0   21  1 
 786.126532   5.68078   22.9400  105.3984   55.2891   267.2915   140.9448   0   21  1 
 786.629848   5.67170   22.9226  105.5523   55.3837   267.2029   140.8842   0   21  1 
 787.133164   5.66113   22.9500  105.6642   55.5204   267.3140   141.0223   0   21  1 
 787.636480   5.65078   22.9191  105.8566   55.6216   267.7082   140.9472   0   21  1 
 788.139796   5.64038   22.9134  106.0150   55.7379   267.7429   140.9762   0   21  1 
 788.643112   5.62872   22.9191  106.1741   55.8738   268.1736   140.9851   0   21  1 
 789.146428   5.61753   22.9136  106.3436   55.9989   268.2324   140.9297   0   21  1 
 789.649744   5.60612   22.9147  106.5089   56.1292   267.9463   140.8395   0   21  1 
 790.153060   5.59630   22.9179  106.6478   56.2435   267.5123   140.7833   0   21  1 
 790.656376   5.58533   22.9152  106.8137   56.3670   267.3217   140.7624   0   21  1 
 791.159692   5.57440   22.9177  106.9708   56.4930   267.5485   140.7458   0   21  1 
 791.663008   5.56385   22.9159  107.1315   56.6120   267.6591   140.8382   0   21  1 
 792.166324   5.55290   22.9148  107.2954   56.7357   267.2508   141.0507   0   21  1 
 792.669640   5.54246   22.9172  107.4496   56.8559   266.9799   141.0776   0   21  1 
 793.172956   5.53352   22.9130  107.5909   56.9547   267.0896   141.4073   0   21  1 
 793.676272   5.52079   22.9149  107.7807   57.0998   267.1503   141.4814   0   21  1 
 794.179588   5.51052   22.9127  107.9412   57.2154   267.0660   141.4496   0   21  1 
 794.682904   5.49969   22.9151  108.1025   57.3392   266.9715   141.3685   0   21  1 
 795.186220   5.48839   22.9171  108.2741   57.4684   266.7685   141.2636   0   21  1 
 795.689536   5.47822   22.9174  108.4314   57.5833   266.9146   141.0029   0   21  1 
 796.192852   5.46455   22.9185  108.6410   57.7381   267.1656   140.9597   0   21  1 
 796.696168   5.45681   22.9147  108.7693   57.8235   267.2360   140.8023   0   21  1 
 797.199484   5.44330   22.9155  108.9802   57.9759   267.2208   140.6820   0   21  1 
 797.702800   5.43536   22.9140  109.1084   58.0643   267.5389   140.8355   0   21  1 
 798.206116   5.42428   22.9148  109.2831   58.1895   267.5816   140.8099   0   21  1 
 798.709432   5.41462   22.9146  109.4385   58.2979   267.7231   140.8711   0   21  1 
 799.212748   5.40349   22.9161  109.6149   58.4234   267.7021   141.0634   0   21  1 
 799.716064   5.39464   22.9181  109.7551   58.5239   267.5560   141.0406   0   21  0 
 800.219380   5.38577   22.9102  109.9116   58.6190   267.7795   140.9905   0   21  0 
 800.722696   5.42172   23.2214  108.8651   58.4097   268.0070   140.7973   0   21  0 
 801.226012   5.41809   23.0696  109.1585   58.3601   268.1378   140.8348   0   22  0 
 801.729328   5.41558   23.0662  109.2058   58.3874   268.0040   140.9320   0   22  1 
 802.232644   5.41605   23.0639  109.2033   58.3820   267.9981   140.8616   0   22  1 
 802.735960   5.41606   23.0629  109.2070   58.3828   267.8884   140.9131   0   22  1 
 803.239276   5.44191   23.0287  108.8558   58.0771   267.6080   140.8185   0   22  1 
 803.742592   5.46191   23.0924  108.4511   57.8938   267.5720   140.8029   0   22  1 
 804.245908   5.47560   23.0364  108.3271   57.7101   267.6868   140.9010   0   22  1 
 804.749224   5.48149   23.0399  108.2354   57.6476   267.5780   140.7319   0   22  1 
 805.252540   5.49320   23.0642  108.0222   57.5328   267.1527   140.8004   0   22  1 
 805.755856   5.50816   23.0432  107.8291   57.3549   267.3146   140.9048   0   22  1 
 806.259172   5.51426   23.0622  107.7112   57.2992   267.3766   140.9126   0   22  1 
 806.762488   5.52574   23.0651  107.5370   57.1737   267.6925   141.0539   0   22  1 
 807.265804   5.53560   23.0672  107.3889   57.0662   267.6951   141.1784   0   22  1 
 807.769120   5.54777   23.0641  107.2148   56.9291   268.1101   141.3235   0   22  1 
 808.272436   5.55818   23.0661  107.0603   56.8150   268.2161   141.1338   0   22  1 
 808.775752   5.56955   23.0658  106.8955   56.6887   268.3483   141.0457   0   22  1 
 809.279068   5.58036   23.0649  106.7401   56.5681   268.3904   140.8268   0   22  1 
 809.782384   5.59098   23.0663  106.5858   56.4509   268.4887   140.6944   0   22  1 
 810.285700   5.60034   23.0655  106.4541   56.3468   268.4732   140.6976   0   22  1 
 810.789016   5.61126   23.0667  106.2962   56.2256   268.4632   140.7124   0   22  1 
 811.292332   5.62252   23.0664  106.1376   56.1003   268.0917   140.8667   0   22  1 
 811.795648   5.63283   23.0649  105.9943   55.9846   267.7999   140.7859   0   22  1 
 812.298964   5.64381   23.0675  105.8367   55.8635   267.0195   140.6253   0   22  1 
 812.802280   5.65334   23.0663  105.7052   55.7565   266.8661   140.7178   0   22  1 
 813.305596   5.66513   23.0652  105.5421   55.6241   266.8127   140.6973   0   22  1 
 813.808912   5.67569   23.0675  105.3923   55.5073   266.8945   140.5613   0   22  1 
 814.312228   5.68690   23.0657  105.2415   55.3808   266.8560   140.6259   0   22  1 
 814.815544   5.69511   23.0658  105.1292   55.2894   266.6578   140.5354   0   22  1 
 815.318860   5.70552   23.0659  104.9871   55.1731   266.6750   140.5499   0   22  1 
 815.822176   5.71645   23.0662  104.8374   55.0501   266.9052   140.5869   0   22  1 
 816.325492   5.72811   23.0676  104.6779   54.9203   266.9258   140.7856   0   22  1 
 816.828808   5.73795   23.0644  104.5493   54.8081   266.7509   140.8156   0   22  1 
 817.332124   5.74842   23.0652  104.4078   54.6904   266.7654   140.7879   0   22  1 
 817.835440   5.76154   23.0689  104.2274   54.5452   266.5665   140.7571   0   22  0 
 818.338756   5.74108   23.0943  104.4700   54.7940   266.6159   140.8425   0   22  0 
 818.842072   5.72722   23.2791  104.3954   55.0584   266.6350   140.9404   0   22  0 
 819.345388   5.73056   23.2684  104.3665   55.0157   266.4147   140.9986   0   22  0 
 819.848704   5.73335   23.2249  104.3940   54.9610   266.6327   140.9239   0   23  1 
 820.352020   5.73343   23.2277  104.3905   54.9637   266.7012   140.7422   0   23  1 
 820.855336   5.73426   23.2184  104.3946   54.9500   266.3877   140.8961   0   23  1 
 821.358652   5.73440   23.2178  104.3955   54.9498   266.6478   140.9168   0   23  1 
 821.861968   5.69164   23.2207  104.9771   55.4395   266.6954   140.8548   0   23  1 
 822.365284   5.67057   23.0579  105.5075   55.5879   266.8558   140.7453   0   23  1 
 822.868600   5.67478   23.2228  105.2153   55.6350   266.8111   140.6051   0   23  1 
 823.371916   5.66595   23.2516  105.2985   55.7532   266.9067   140.6882   0   23  1 
 823.875232   5.65396   23.2235  105.5105   55.8746   266.9923   140.8365   0   23  1 
 824.378548   5.64567   23.2144  105.6422   55.9647   267.0820   140.8805   0   23  1 
 824.881864   5.63268   23.2190  105.8218   56.1158   267.1830   140.7042   0   23  1 
 825.385180   5.62338   23.2203  105.9550   56.2237   267.3674   140.6878   0   23  1 
 825.888496   5.60999   23.2173  106.1529   56.3743   267.4312   140.7439   0   23  1 
 826.391812   5.60156   23.2165  106.2779   56.4707   268.0626   140.8327   0   23  1 
 826.895128   5.59057   23.2160  106.4400   56.5960   268.3484   140.8024   0   23  1 
 827.398444   5.57966   23.2170  106.5985   56.7208   268.5356   140.8815   0   23  1 
 827.901760   5.56708   23.2151  106.7874   56.8627   268.7333   141.0457   0   23  1 
 828.405076   5.56023   23.2174  106.8866   56.9432   268.6017   141.2953   0   23  1 
 828.908392   5.54777   23.2185  107.0713   57.0854   268.3289   141.2874   0   23  1 
 829.411708   5.53711   23.2160  107.2347   57.2050   267.9940   141.1381   0   23  1 
 829.915024   5.52782   23.2189  107.3715   57.3125   267.6352   141.0672   0   23  1 
 830.418340   5.51516   23.2164  107.5665   57.4546   267.3081   140.9533   0   23  1 
 830.921656   5.50502   23.2148  107.7244   57.5689   266.9126   140.8838   0   23  1 
 831.424972   5.49534   23.2167  107.8696   57.6794   266.9590   140.6704   0   23  1 
 831.928288   5.48547   23.2158  108.0234   57.7914   267.0776   140.7021   0   23  1 
 832.431604   5.47402   23.2159  108.2004   57.9206   267.1250   140.7437   0   23  1 
 832.934920   5.46218   23.2173  108.3826   58.0548   267.1623   140.7122   0   23  1 
 833.438236   5.45262   23.2163  108.5332   58.1626   267.2417   140.5383   0   23  1 
 833.941552   5.44120   23.2176  108.7114   58.2923   267.2755   140.5584   0   23  1 
 834.444868   5.43152   23.2175  108.8646   58.4008   267.5060   140.7421   0   23  1 
 834.948184   5.42145   23.2167  109.0268   58.5147   267.7778   140.7395   0   23  1 
 835.451500   5.41000   23.2145  109.2121   58.6417   267.9025   140.8245   0   23  1 
 835.954816   5.39791   23.2168  109.4029   58.7785   267.7926   140.7398   0   23  0 
 836.458132   5.38860   23.2171  109.5533   58.8835   267.8502   140.8031   0   23  0 
 836.961448   5.42029   23.2080  109.0667   58.5285   268.2507   140.8885   0   23  0 
 837.464764   5.42426   23.5971  108.4024   58.7167   268.4339   140.8645   0   23  0 
 837.968080   5.41399   23.3563  108.9414   58.6890   268.4446   140.8919   0   24  1 
 838.471396   5.41615   23.3609  108.9029   58.6695   268.2989   141.0021   0   24  1 
 838.974712   5.41590   23.3654  108.9015   58.6765   268.2806   140.9742   0   24  1 
 839.478028   5.41620   23.3660  108.8980   58.6751   268.4589   140.8843   0   24  1 
 839.981344   5.41835   23.3655  108.8677   58.6524   268.2434   140.8878   0   24  1 
 840.484660   5.47554   23.4264  107.8832   58.0540   267.8078   140.7043   0   24  1 
 840.987976   5.47217   23.3522  108.0567   58.0480   267.4824   140.6503   0   24  1 
 841.491292   5.48067   23.3825  107.8821   57.9722   267.4887   140.6533   0   24  1 
 841.994608   5.49443   23.3581  107.7119   57.8056   267.4800   140.7122   0   24  1 
 842.497924   5.50467   23.3628  107.5530   57.6953   267.3516   140.8903   0   24  1 
 843.001240   5.51593   23.3474  107.4087   57.5620   267.2607   140.7780   0   24  1 
 843.504556   5.52649   23.3684  107.2213   57.4571   267.3328   140.8383   0   24  1 
 844.007872   5.53473   23.3674  107.1022   57.3656   267.3531   141.0964   0   24  1 
 844.511188   5.54721   23.3655  106.9222   57.2258   267.6342   141.0391   0   24  1 
 845.014504   5.55770   23.3659  106.7692   57.1096   267.8880   141.2806   0   24  1 
 845.517820   5.56964   23.3678  106.5917   56.9776   268.1578   141.3671   0   24  1 
 846.021136   5.57884   23.3665  106.4632   56.8750   268.0180   141.2681   0   24  1 
 846.524452   5.58954   23.3665  106.3095   56.7557   268.1179   141.0761   0   24  1 
 847.027768   5.60047   23.3675  106.1519   56.6348   267.8133   140.9508   0   24  1 
 847.531084   5.61020   23.3657  106.0160   56.5254   267.5736   140.6815   0   24  1 
 848.034400   5.62192   23.3681  105.8469   56.3958   267.3859   140.7007   0   24  1 
 848.537716   5.63539   23.3691  105.6563   56.2460   266.9470   140.7482   0   24  1 
 849.041032   5.64337   23.3681  105.5463   56.1563   267.1605   140.8474   0   24  1 
 849.544348   5.65330   23.3670  105.4092   56.0450   267.0317   140.9431   0   24  1 
 850.047664   5.66473   23.3658  105.2526   55.9160   266.9531   140.9330   0   24  1 
 850.550980   5.67831   23.3681  105.0613   55.7650   266.9934   141.0232   0   24  1 
 851.054296   5.68622   23.3675  104.9542   55.6765   267.2061   140.9415   0   24  1 
 851.557612   5.69570   23.3678  104.8229   55.5703   267.1280   141.0378   0   24  1 
 852.060928   5.70738   23.3683  104.6642   55.4397   267.2374   141.0361   0   24  1 
 852.564244   5.72095   23.3670  104.4812   55.2857   267.2685   141.1081   0   24  1 
 853.067560   5.72885   23.3665  104.3752   55.1974   266.9724   141.0852   0   24  1 
 853.570876   5.73865   23.3672  104.2434   55.0878   267.1013   141.0224   0   24  1 
 854.074192   5.75042   23.3674  104.0856   54.9555   267.0428   140.9445   0   24  1 
 854.577508   5.76144   23.3668  103.9401   54.8312   267.0054   140.8761   0   24  0 
 855.080824   5.74550   23.3923  104.1202   55.0286   267.0136   140.9408   0   24  0 
 855.584140   5.72432   23.6304  104.0637   55.4055   267.2374   140.9354   0   24  0 
 856.087456   5.73531   23.5047  104.0994   55.2112   267.1582   140.8018   0   25  1 
 856.590772   5.73404   23.5133  104.1054   55.2322   267.3130   140.9378   0   25  1 
 857.094088   5.73417   23.5283  104.0844   55.2406   267.2030   140.9446   0   25  1 
 857.597404   5.73402   23.5345  104.0792   55.2473   266.8361   140.9962   0   25  1 
 858.100720   5.70193   23.5224  104.5361   55.6080   267.0307   141.1915   0   25  1 
 858.604036   5.66416   23.4751  105.1242   56.0133   266.8934   141.1918   0   25  1 
 859.107352   5.67674   23.5316  104.8758   55.9026   267.0816   141.2099   0   25  1 
 859.610668   5.66340   23.5047  105.1028   56.0410   266.9837   141.0611   0   25  1 
 860.113984   5.65566   23.5216  105.1889   56.1393   267.0013   141.2001   0   25  1 
 860.617300   5.65284   23.5311  105.2168   56.1785   267.0499   140.8639   0   25  1 
 861.120616   5.63454   23.5208  105.4926   56.3817   266.9996   140.8518   0   25  1 
 861.623932   5.62423   23.5198  105.6419   56.4989   267.2277   140.7950   0   25  1 
 862.127248   5.61317   23.5189  105.8040   56.6256   267.0576   140.7688   0   25  1 
 862.630564   5.60297   23.5134  105.9596   56.7390   267.0632   140.8075   0   25  1 
 863.133880   5.59173   23.5181  106.1172   56.8704   267.4292   140.8316   0   25  1 
 863.637196   5.58137   23.5166  106.2717   56.9886   267.7029   140.9427   0   25  1 
 864.140512   5.57021   23.5165  106.4366   57.1155   267.8136   141.0157   0   25  1 
 864.643828   5.55930   23.5171  106.5975   57.2405   267.6450   141.1030   0   25  1 
 865.147144   5.54979   23.5170  106.7397   57.3488   267.4107   141.0890   0   25  1 
 865.650460   5.53603   23.5184  106.9434   57.5062   267.2985   140.9700   0   25  1 
 866.153776   5.52866   23.5175  107.0566   57.5899   267.1525   140.9349   0   25  1 
 866.657092   5.51445   23.5174  107.2705   57.7511   267.1264   140.9376   0   25  1 
 867.160408   5.50716   23.5173  107.3830   57.8342   267.0885   141.0119   0   25  1 
 867.663724   5.49308   23.5159  107.5994   57.9932   267.2092   140.8209   0   25  1 
 868.167040   5.48375   23.5183  107.7391   58.1002   267.4457   140.8276   0   25  1 
 868.670356   5.47124   23.5130  107.9397   58.2388   267.4916   140.8122   0   25  1 
 869.173672   5.46475   23.5167  108.0376   58.3147   267.5522   140.8221   0   25  1 
 869.676988   5.45313   23.5173  108.2175   58.4467   267.7166   140.9382   0   25  1 
 870.180304   5.44349   23.5184  108.3674   58.5564   267.8134   140.9265   0   25  1 
 870.683620   5.43177   23.5178  108.5532   58.6883   267.9639   140.8267   0   25  1 
 871.186936   5.42274   23.5175  108.6974   58.7901   268.1674   140.5895   0   25  1 
 871.690252   5.41010   23.5157  108.9007   58.9312   268.0408   140.7230   0   25  1 
 872.193568   5.39975   23.5175  109.0640   59.0488   268.1112   140.8705   0   25  1 
 872.696884   5.38844   23.5164  109.2492   59.1750   268.0783   140.8789   0   25  0 
 873.200200   5.40703   23.4626  109.0408   58.9392   268.3056   140.9803   0   25  0 
 873.703516   5.42390   23.8708  108.1345   58.9934   268.3938   141.0496   0   25  0 
 874.206832   5.41610   23.6768  108.5655   58.9674   268.4046   140.9351   0   26  1 
 874.710148   5.41535   23.6683  108.5926   58.9718   268.5537   140.8468   0   26  1 
 875.213464   5.41584   23.6659  108.5912   58.9666   268.3544   140.9290   0   26  1 
 875.716780   5.41619   23.6649  108.5893   58.9636   267.8955   140.8844   0   26  1 
 876.220096   5.46195   23.6322  107.9280   58.4362   267.8682   140.9394   0   26  1 
 876.723412   5.46655   23.6328  107.8620   58.3863   267.7605   140.9403   0   26  1 
 877.226728   5.47679   23.6568  107.6698   58.2871   267.8957   140.8675   0   26  1 
 877.730044   5.48771   23.6558  107.5069   58.1658   267.7854   140.7987   0   26  1 
 878.233360   5.49754   23.6658  107.3458   58.0629   267.6213   140.7154   0   26  1 
 878.736676   5.50771   23.6591  107.2050   57.9464   267.4263   140.6689   0   26  1 
 879.239992   5.51788   23.6653  107.0452   57.8375   267.3118   140.5764   0   26  1 
 879.743308   5.53322   23.6593  106.8277   57.6634   267.6092   140.8142   0   26  1 
 880.246624   5.53960   23.6630  106.7300   57.5951   267.7034   140.8488   0   26  1 
 880.749940   5.55063   23.6655  106.5650   57.4738   267.5664   140.8029   0   26  1 
 881.253256   5.56092   23.6677  106.4130   57.3605   267.6931   140.7346   0   26  1 
 881.756572   5.57613   23.6641  106.1969   57.1890   267.7131   140.7831   0   26  1 
 882.259888   5.58254   23.6684  106.1010   57.1204   267.3610   140.6976   0   26  1 
 882.763204   5.59449   23.6656  105.9338   56.9856   267.2542   140.8028   0   26  1 
 883.266520   5.60387   23.6699  105.7951   56.8833   267.4435   140.8329   0   26  1 
 883.769836   5.61542   23.6649  105.6380   56.7516   267.2556   140.8036   0   26  1 
 884.273152   5.62469   23.6642  105.5102   56.6478   267.2538   140.7010   0   26  1 
 884.776468   5.63693   23.6686  105.3307   56.5128   267.2184   140.7208   0   26  1 
 885.279784   5.64770   23.6657  105.1858   56.3910   267.3949   140.7632   0   26  1 
 885.783100   5.65797   23.6690  105.0381   56.2772   267.1558   140.8377   0   26  1 
 886.286416   5.66886   23.6664  104.8922   56.1542   267.2535   140.9876   0   26  1 
 886.789732   5.67953   23.6665  104.7442   56.0346   267.2789   141.0315   0   26  1 
 887.293048   5.69035   23.6675  104.5952   55.9138   267.2112   140.9851   0   26  1 
 887.796364   5.70084   23.6675  104.4524   55.7957   267.1504   141.0346   0   26  1 
 888.299680   5.71144   23.6678  104.3085   55.6771   266.9904   141.0491   0   26  1 
 888.802996   5.72172   23.6662  104.1718   55.5604   266.6985   140.8915   0   26  1 
 889.306312   5.73346   23.6641  104.0178   55.4274   266.7745   140.8285   0   26  1 
 889.809628   5.74271   23.6655  103.8914   55.3243   266.8175   140.8454   0   26  1 
 890.312944   5.75483   23.6672  103.7271   55.1883   266.3629   140.8052   0   26  0 
 890.816260   5.76481   23.6708  103.5896   55.0782   266.4530   140.7774   0   26  0 
 891.319576   5.71774   23.8768  103.9262   55.7317   266.6080   140.9138   0   26  0 
 891.822892   5.73058   23.8420  103.8055   55.5671   266.6194   140.9904   0   26  0 
 892.326208   5.73468   23.8169  103.7891   55.5084   266.7085   140.9140   0   26  0 
 892.829524   5.73358   23.8334  103.7809   55.5314   266.6732   141.1295   0   27  1 
 893.332840   5.73437   23.8266  103.7827   55.5203   266.6063   141.1101   0   27  1 
 893.836156   5.73451   23.8222  103.7885   55.5178   266.7709   141.0724   0   27  1 
 894.339472   5.73457   23.8311  103.7762   55.5233   266.9014   141.0790   0   27  1 
 894.842788   5.68775   23.7276  104.5702   56.0016   266.9120   141.0986   0   27  1 
 895.346104   5.68720   23.8119  104.4548   56.0567   267.3197   141.3015   0   27  1 
 895.849420   5.67164   23.8302  104.6450   56.2454   267.3018   141.2603   0   27  1 
 896.352736   5.66399   23.8094  104.7855   56.3220   267.3660   141.1708   0   27  1 
 896.856052   5.64999   23.8154  104.9746   56.4861   267.3419   141.1742   0   27  1 
 897.359368   5.64288   23.8250  105.0619   56.5735   267.2665   141.1485   0   27  1 
 897.862684   5.63114   23.8182  105.2400   56.7048   267.4529   141.1829   0   27  1 
 898.366000   5.62171   23.8153  105.3799   56.8115   267.1725   141.1693   0   27  1 
 898.869316   5.60730   23.8183  105.5839   56.9781   267.1837   141.1123   0   27  1 
 899.372632   5.60036   23.8170  105.6867   57.0573   267.0858   140.9800   0   27  1 
 899.875948   5.58911   23.8186  105.8488   57.1873   267.1926   140.9657   0   27  1 
 900.379264   5.57938   23.8156  105.9966   57.2975   267.2335   141.0397   0   27  1 
 900.882580   5.56472   23.8162  106.2104   57.4644   267.1111   141.0451   0   27  1 
 901.385896   5.55653   23.8161  106.3326   57.5587   266.9909   141.0352   0   27  1 
 901.889212   5.54641   23.8177  106.4811   57.6750   267.1870   141.0319   0   27  1 
 902.392528   5.53367   23.8195  106.6680   57.8207   267.2107   140.8953   0   27  1 
 902.895844   5.52369   23.8175  106.8224   57.9336   267.3558   140.9669   0   27  1 
 903.399160   5.51222   23.8162  106.9978   58.0640   267.2535   141.0321   0   27  1 
 903.902476   5.50358   23.8188  107.1255   58.1639   267.3411   140.9513   0   27  1 
 904.405792   5.49076   23.8185  107.3210   58.3090   267.3735   140.9505   0   27  1 
 904.909108   5.48103   23.8175  107.4735   58.4191   267.4094   141.0148   0   27  1 
 905.412424   5.46964   23.8182  107.6473   58.5488   267.7157   140.8606   0   27  1 
 905.915740   5.46094   23.8155  107.7875   58.6461   267.5072   141.0510   0   27  1 
 906.419056   5.44805   23.8156  107.9884   58.7919   267.5064   141.0835   0   27  1 
 906.922372   5.43814   23.8173  108.1420   58.9052   267.3484   140.9328   0   27  1 
 907.425688   5.42865   23.8173  108.2912   59.0124   267.5002   140.9908   0   27  1 
 907.929004   5.41899   23.8180  108.4437   59.1218   267.5406   141.0917   0   27  1 
 908.432320   5.40725   23.8176  108.6311   59.2546   267.6746   140.9856   0   27  1 
 908.935636   5.39548   23.8191  108.8183   59.3878   267.7168   141.1897   0   27  0 
 909.438952   5.38577   23.8192  108.9740   59.4973   267.8098   141.0995   0   27  0 
 909.942268   5.43255   23.7508  108.3452   58.9381   268.1877   141.3542   0   27  0 
 910.445584   5.42356   24.0942  107.9443   59.2402   268.4547   141.4783   0   27  0 
 910.948900   5.41618   23.9754  108.2528   59.2549   268.5172   141.4383   0   28  1 
 911.452216   5.41592   23.9743  108.2595   59.2584   268.2054   141.2495   0   28  1 
 911.955532   5.41532   23.9727  108.2741   59.2663   268.0043   141.0655   0   28  1 
 912.458848   5.41527   23.9736  108.2760   59.2690   267.9090   141.1254   0   28  1 
 912.962164   5.46714   23.9694  107.4763   58.6885   267.9667   141.0005   0   28  1 
 913.465480   5.46536   23.8967  107.6244   58.6666   267.9905   140.9865   0   28  1 
 913.968796   5.47899   23.9778  107.2913   58.5631   267.9775   141.1401   0   28  1 
 914.472112   5.48776   23.9397  107.2198   58.4440   267.7590   140.9223   0   28  1 
 914.975428   5.50104   23.9521  107.0027   58.3037   267.7382   141.0605   0   28  1 
 915.478744   5.50903   23.9628  106.8679   58.2217   267.5628   141.1093   0   28  1 
 915.982060   5.52200   23.9729  106.6608   58.0830   267.4220   141.3110   0   28  1 
 916.485376   5.53043   23.9662  106.5475   57.9858   267.4581   141.2110   0   28  1 
 916.988692   5.54175   23.9640  106.3867   57.8587   267.4630   141.0943   0   28  1 
 917.492008   5.55221   23.9668  106.2301   57.7438   267.2946   141.1166   0   28  1 
 917.995324   5.56282   23.9696  106.0725   57.6270   267.5105   141.0973   0   28  1 
 918.498640   5.57355   23.9684  105.9199   57.5068   267.4550   141.0021   0   28  1 
 919.001956   5.58411   23.9684  105.7694   57.3888   267.4419   141.0214   0   28  1 
 919.505272   5.59363   23.9697  105.6322   57.2835   267.2697   141.0418   0   28  1 
 920.008588   5.60562   23.9663  105.4673   57.1477   267.0470   140.9324   0   28  1 
 920.511904   5.61721   23.9691  105.2986   57.0192   266.9029   140.7885   0   28  1 
 921.015220   5.62553   23.9648  105.1895   56.9239   266.9946   140.7702   0   28  1 
 921.518536   5.64012   23.9683  104.9792   56.7619   266.8258   140.7620   0   28  1 
 922.021852   5.64825   23.9669  104.8701   56.6702   267.0269   140.7627   0   28  1 
 922.525168   5.65698   23.9689  104.7457   56.5740   267.0477   141.0969   0   28  1 
 923.028484   5.66947   23.9705  104.5721   56.4344   266.8958   141.1155   0   28  1 
 923.531800   5.68042   23.9705  104.4212   56.3115   266.9726   141.0207   0   28  1 
 924.035116   5.68962   23.9638  104.3062   56.2041   266.9459   141.0583   0   28  1 
 924.538432   5.70048   23.9662  104.1554   56.0838   266.9560   140.9730   0   28  1 
 925.041748   5.71165   23.9657  104.0053   55.9578   266.7944   140.9845   0   28  1 
 925.545064   5.72316   23.9681  103.8465   55.8294   266.7548   140.9957   0   28  1 
 926.048380   5.73371   23.9687  103.7043   55.7107   266.6794   140.9925   0   28  1 
 926.551696   5.74645   23.9694  103.5328   55.5673   266.6398   140.9184   0   28  1 
 927.055012   5.75464   23.9689  103.4259   55.4749   266.1692   140.8541   0   28  0 
 927.558328   5.76781   23.9701  103.2489   55.3263   266.5622   141.0915   0   28  0 
 928.061644   5.72629   23.9885  103.7828   55.8136   266.8591   141.0394   0   28  0 
 928.564960   5.73238   24.2123  103.3711   55.8687   266.7206   141.0410   0   28  0 
 929.068276   5.73251   24.1403  103.4777   55.8292   266.5791   140.7736   0   29  1 
 929.571592   5.73302   24.1458  103.4644   55.8281   266.7156   140.7568   0   29  1 
 930.074908   5.73326   24.1428  103.4675   55.8247   266.4933   141.0435   0   29  1 
 930.578224   5.73440   24.1226  103.4840   55.8027   266.4739   141.0082   0   29  1 
 931.081540   5.69209   24.1107  104.0771   56.2808   266.5384   140.9509   0   29  1 
 931.584856   5.67854   24.0265  104.3918   56.3900   266.8740   141.0564   0   29  1 
 932.088172   5.67782   24.1293  104.2517   56.4566   267.0482   141.2075   0   29  1 
 932.591488   5.66442   24.1527  104.4038   56.6238   267.2350   141.0875   0   29  1 
 933.094804   5.65435   24.1233  104.5905   56.7238   267.3925   141.3167   0   29  1 
 933.598120   5.64408   24.1160  104.7474   56.8382   267.3028   141.2215   0   29  1 
 934.101436   5.63546   24.1151  104.8717   56.9369   267.2025   141.1642   0   29  1 
 934.604752   5.62276   24.1210  105.0444   57.0863   267.2295   141.1260   0   29  1 
 935.108068   5.61183   24.1203  105.2036   57.2117   267.3064   141.1675   0   29  1 
 935.611384   5.60189   24.1186  105.3494   57.3248   267.2969   141.2341   0   29  1 
 936.114700   5.59183   24.1208  105.4928   57.4417   267.1932   141.2523   0   29  1 
 936.618016   5.58087   24.1202  105.6534   57.5669   267.1660   141.2586   0   29  1 
 937.121332   5.56912   24.1173  105.8303   57.6998   267.4577   141.3353   0   29  1 
 937.624648   5.55947   24.1181  105.9718   57.8108   267.4580   141.3943   0   29  1 
 938.127964   5.54847   24.1177  106.1353   57.9365   267.5810   141.3944   0   29  1 
 938.631280   5.53659   24.1153  106.3160   58.0710   267.3967   141.3855   0   29  1 
 939.134596   5.52753   24.1170  106.4505   58.1756   267.5342   141.2443   0   29  1 
 939.637912   5.51598   24.1177  106.6224   58.3076   267.3231   141.2129   0   29  1 
 940.141228   5.50567   24.1181  106.7782   58.4255   267.3522   141.1266   0   29  1 
 940.644544   5.49490   24.1181  106.9425   58.5483   267.2636   141.0415   0   29  1 
 941.147860   5.48499   24.1193  107.0925   58.6617   267.1971   141.0499   0   29  1 
 941.651176   5.47047   24.1158  107.3199   58.8243   267.3378   140.9103   0   29  1 
 942.154492   5.46303   24.1195  107.4306   58.9116   267.2345   140.9454   0   29  1 
 942.657808   5.44908   24.1174  107.6494   59.0683   267.4660   141.0104   0   29  1 
 943.161124   5.44207   24.1157  107.7642   59.1474   267.7857   140.9757   0   29  1 
 943.664440   5.42749   24.1162  107.9914   59.3123   267.8321   141.1302   0   29  1 
 944.167756   5.41970   24.1183  108.1122   59.4021   267.9124   141.1254   0   29  1 
 944.671072   5.40907   24.1190  108.2808   59.5229   267.8905   141.0020   0   29  1 
 945.174388   5.39961   24.1183  108.4335   59.6293   267.9409   141.1485   0   29  0 
 945.677704   5.38786   24.1201  108.6188   59.7626   267.8018   141.1326   0   29  0 
 946.181020   5.42186   24.0712  108.1623   59.3573   268.0796   141.2711   0   29  0 
 946.684336   5.42348   24.4675  107.5007   59.5700   268.3505   141.3062   0   29  0 
 947.187652   5.41563   24.2783  107.9327   59.5503   268.4527   141.1489   0   30  1 
 947.690968   5.41626   24.2674  107.9427   59.5378   268.5595   141.0158   0   30  1 
 948.194284   5.41610   24.2676  107.9467   59.5414   268.3118   141.0620   0   30  1 
 948.697600   5.41615   24.2682  107.9472   59.5424   268.2450   141.2339   0   30  1 
 949.200916   5.44539   24.2371  107.5434   59.1991   268.2050   141.1068   0   30  1 
 949.704232   5.48119   24.3385  106.8302   58.8579   268.0222   141.0654   0   30  1 
 950.207548   5.47622   24.2413  107.0694   58.8585   267.9777   141.1995   0   30  1 
 950.710864   5.48455   24.2604  106.9155   58.7774   268.0847   141.0960   0   30  1 
 951.214180   5.49474   24.2576  106.7685   58.6629   267.9327   140.9494   0   30  1 
 951.717496   5.50635   24.2606  106.5918   58.5357   267.7708   141.1395   0   30  1 
 952.220812   5.51603   24.2650  106.4429   58.4306   267.6595   141.1833   0   30  1 
 952.724128   5.52573   24.2650  106.3008   58.3226   267.6801   141.2530   0   30  1 
 953.227444   5.53778   24.2698  106.1172   58.1911   267.9428   141.3435   0   30  1 
 953.730760   5.54681   24.2689  105.9883   58.0900   267.7581   141.3312   0   30  1 
 954.234076   5.55909   24.2681  105.8113   57.9524   267.8972   141.3118   0   30  1 
 954.737392   5.56922   24.2669  105.6680   57.8385   267.9672   141.3644   0   30  1 
 955.240708   5.58048   24.2685  105.5046   57.7139   267.7350   141.3785   0   30  1 
 955.744024   5.58977   24.2685  105.3728   57.6102   267.5845   141.0477   0   30  1 
 956.247340   5.60180   24.2678  105.2032   57.4748   267.4636   141.0642   0   30  1 
 956.750656   5.61070   24.2667  105.0805   57.3749   267.4580   141.0179   0   30  1 
 957.253972   5.62178   24.2683  104.9228   57.2514   267.5822   141.1555   0   30  1 
 957.757288   5.63201   24.2708  104.7767   57.1384   267.5940   141.3066   0   30  1 
 958.260604   5.64371   24.2684  104.6169   57.0053   267.3721   141.1728   0   30  1 
 958.763920   5.65800   24.2695  104.4161   56.8452   267.4624   141.1255   0   30  1 
 959.267236   5.66436   24.2687  104.3321   56.7737   267.1801   141.0399   0   30  1 
 959.770552   5.67556   24.2680  104.1798   56.6473   267.2158   141.0589   0   30  1 
 960.273868   5.68715   24.2674  104.0230   56.5165   266.9757   140.9306   0   30  1 
 960.777184   5.69553   24.2643  103.9138   56.4207   266.8200   140.8811   0   30  1 
 961.280500   5.70839   24.2680  103.7349   56.2774   266.9541   140.7426   0   30  1 
 961.783816   5.71822   24.2663  103.6057   56.1663   266.6731   140.7999   0   30  1 
 962.287132   5.73297   24.2668  103.4053   55.9990   266.6450   140.8805   0   30  1 
 962.790448   5.74142   24.2675  103.2934   55.9043   266.5139   140.7574   0   30  1 
 963.293764   5.75091   24.2697  103.1653   55.7987   266.5834   140.7702   0    0  0 
 963.734166   5.76007   24.2708  103.0420   55.6960   266.6724   140.6244   0    0  0 
 963.834829   5.76217   24.2711  103.0138   55.6725   266.5295   140.5358   0    0  0 
 963.935492   5.76471   24.2705  102.9821   55.6437   266.5892   140.6900   0    0  0 
 964.036155   5.76685   24.2706  102.9536   55.6197   266.8988   140.7745   0    0  0 
 964.136818   5.76898   24.2708  102.9251   55.5957   266.7066   140.7998   0    0  0 
 964.237481   5.76860   24.2708  102.9302   55.6000   266.8355   140.5936   0    0  0 
 964.338145   5.77052   24.2709  102.9045   55.5784   266.8530   140.9750   0    0  0 
 964.438808   5.77128   24.2769  102.8872   55.5731   267.0006   141.0001   0    0  0 
 964.539471   5.77311   24.2776  102.8622   55.5529   267.2655   140.7673   0    0  0 
 964.640135   5.77493   24.2782  102.8372   55.5327   266.9770   140.7659   0    0  0 
 964.740797   5.77675   24.2788  102.8123   55.5124   266.9157   140.7251   0    0  0 
 964.841461   5.77858   24.2795  102.7873   55.4922   266.6098   140.9436   0    0  0 
 964.942124   5.78040   24.2801  102.7624   55.4720   267.0521   140.7673   0    0  0 
 965.042787   5.70310   24.3064  103.7577   56.3715   266.8224   140.8747   0    0  0 
 965.143451   5.69976   24.3087  103.7993   56.4113   266.9357   140.8155   0    0  0 
 965.244114   5.69642   24.3110  103.8409   56.4511   266.6091   140.8164   0    0  0 
 965.344776   5.69308   24.3133  103.8825   56.4909   267.0313   140.6298   0    0  0 
 965.445440   5.68975   24.3156  103.9241   56.5307   266.8202   140.5573   0    0  0 
 965.546103   5.68641   24.3180  103.9657   56.5705   266.7121   140.7315   0    0  0 
 965.646766   5.68307   24.3203  104.0073   56.6103   266.8420   140.8552   0    0  0 
 965.747430   5.67973   24.3226  104.0489   56.6501   266.6904   140.8106   0    0  0 
 965.848093   5.67639   24.3249  104.0905   56.6899   266.9521   140.6439   0    0  0 
 965.948756   5.74229   24.0223  103.6621   55.7699   266.7782   140.8084   0    0  0 
 966.049419   5.74219   24.0103  103.6817   55.7647   266.7776   140.9427   0    0  0 
 966.150082   5.74210   23.9983  103.7013   55.7595   266.3241   141.0974   0    0  0 
 966.250746   5.79287   24.2369  102.6606   55.3098   266.8041   140.9710   0    0  0 
 966.351409   5.79523   24.2371  102.6289   55.2831   266.7782   140.6423   0    0  0 
 966.452072   5.79760   24.2372  102.5971   55.2565   266.7945   140.8501   0    0  0 
 966.552735   5.79996   24.2374  102.5654   55.2298   266.9408   140.7068   0    0  0 
 966.653398   5.74606   24.2193  103.3188   55.8372   266.7123   140.6988   0    0  0 
 966.754061   5.74594   24.2187  103.3217   55.8385   266.6822   140.6527   0    0  0 
 966.854725   5.74738   24.2370  103.2753   55.8323   270.8537   143.0498   1    0  0 
 966.955388   5.74739   24.2379  103.2742   55.8330   285.3144   150.6724   1    0  0 
 967.056051   5.74977   24.1956  103.3058   55.7826   285.4103   150.6220   1    0  0 
 967.156714   5.75113   24.2138  103.2611   55.7780   285.8493   150.6385   1    0  0 
 967.257377   5.75143   24.2131  103.2586   55.7745   285.4909   150.5447   1    0  0 
 967.358041   5.75173   24.2123  103.2560   55.7710   285.2744   150.6319   1    0  0 
 967.458704   5.74615   24.2390  103.2915   55.8496   285.8416   150.6831   1    0  0 
 967.559367   5.74931   24.2170  103.2823   55.8017   285.6038   150.6429   1    0  0 
 967.660031   5.74946   24.2162  103.2818   55.7999   285.7054   150.6396   1    0  0 
 967.760693   5.74961   24.2154  103.2813   55.7981   285.2547   150.6589   1    0  0 
 967.861357   5.74990   24.2178  103.2732   55.7965   284.9954   150.7724   1    0  0 
 967.962020   5.74563   24.2533  103.2792   55.8648   285.4299   150.7795   1    0  0 
 968.062683   5.74541   24.2559  103.2787   55.8691   285.5555   150.9295   1    0  0 
 968.163346   5.74519   24.2585  103.2782   55.8733   285.6582   150.6668   1    0  0 
 968.264010   5.74976   24.2231  103.2691   55.8023   285.7233   150.6898   1    0  0 
 968.364672   5.74893   24.2128  103.2963   55.8057   285.6366   150.6828   1    0  0 
 968.465336   5.74900   24.2115  103.2975   55.8044   285.2072   150.6841   1    0  0 
 968.565999   5.74908   24.2103  103.2988   55.8031   285.3364   150.8003   1    0  0 
 968.666662   5.74690   24.2519  103.2663   55.8521   285.2541   150.6227   1    0  0 
 968.767326   5.74806   24.2232  103.2947   55.8233   285.3460   150.5965   1    0  0 
 968.867989   5.74807   24.2227  103.2959   55.8233   285.2879   150.5859   1    0  0 
 968.968652   5.74807   24.2222  103.2970   55.8233   285.4104   150.5151   1    0  0 
 969.069315   5.74991   24.2261  103.2650   55.8043   285.3106   150.4404   1    0  0 
 969.169978   5.75006   24.2259  103.2635   55.8028   285.1580   150.4926   1    0  0 
 969.270642   5.74816   24.2172  103.3034   55.8203   285.4249   150.4275   1    0  0 
 969.371305   5.74815   24.2164  103.3052   55.8203   285.1884   150.5606   1    0  0 
 969.471968   5.74881   24.2284  103.2788   55.8198   285.6101   150.5075   1    0  0 
 969.572631   5.74885   24.2285  103.2784   55.8197   285.6401   150.5487   1    0  0 
 969.673294   5.74908   24.2323  103.2705   55.8189   285.4137   150.6549   1    0  0 
 969.773957   5.74913   24.2328  103.2695   55.8188   285.5191   150.3321   1    0  0 
